Time,State,Board Temp (C),Deploy Percent (%),Altitude,Velocity,Linear Acceleration X,Linear Acceleration Y,Linear Acceleration Z,Quarterion W,Quarterion X,Quarterion Y,Quarterion Z
408291054,0,19.18,0,1400.38,-1.47,0.69,0.04,0.98,0.36,0.72,0.12,0.59
408417673,0,19.65,0,1400.38,-0.91,-0.11,-1.20,0.34,0.36,0.72,0.12,0.59
408541054,0,20.12,0,1400.38,-0.58,1.42,0.88,0.61,0.36,0.72,0.12,0.59
408667682,0,19.65,0,1400.38,-0.27,-1.11,-0.88,1.25,0.36,0.72,0.12,0.59
408791053,0,19.65,0,1400.38,-0.14,0.34,-1.46,0.00,0.36,0.72,0.12,0.59
408917690,0,19.65,0,1400.38,-0.02,0.53,0.89,1.15,0.36,0.72,0.12,0.59
409041053,0,20.12,0,1400.38,0.07,0.37,-1.26,0.51,0.36,0.72,0.12,0.59
409167914,0,19.65,0,1402.81,6.37,0.25,-1.29,0.95,0.36,0.71,0.12,0.59
409291056,0,19.18,0,1402.81,4.46,0.59,-0.67,0.74,0.36,0.71,0.12,0.59
409419026,0,19.18,0,1402.81,3.00,-0.12,-0.64,0.58,0.36,0.71,0.12,0.59
409541054,0,19.65,0,1402.81,2.18,0.72,-0.90,1.60,0.36,0.71,0.12,0.59
409667663,0,20.12,0,1402.81,1.49,0.55,-0.39,0.37,0.36,0.72,0.12,0.59
409791054,0,19.65,0,1402.81,1.07,0.68,-0.04,0.87,0.36,0.72,0.12,0.59
409917655,0,18.71,0,1402.81,0.83,0.63,-0.76,0.91,0.36,0.71,0.12,0.59
410041054,0,19.65,0,1402.81,0.63,-0.68,-1.09,0.70,0.36,0.72,0.12,0.59
410167678,0,19.65,0,1398.62,-9.94,-0.56,-0.37,1.40,0.36,0.72,0.12,0.59
410291051,0,19.65,0,1398.62,-6.71,-1.74,-1.08,0.28,0.36,0.72,0.12,0.59
410417673,0,19.65,0,1398.62,-4.39,-0.38,-0.31,0.50,0.36,0.72,0.12,0.59
410541054,0,20.12,0,1398.62,-2.91,2.35,-1.17,1.44,0.36,0.72,0.12,0.59
410667701,0,19.65,0,1398.62,-1.86,-0.52,-1.97,0.26,0.36,0.72,0.12,0.59
410791057,0,20.12,0,1398.62,-1.21,0.84,-0.95,1.05,0.36,0.71,0.12,0.59
410918435,0,19.18,0,1398.62,-0.70,-0.30,-0.99,0.21,0.36,0.72,0.12,0.59
411041055,0,20.12,0,1398.62,-0.43,1.15,-0.89,1.16,0.36,0.71,0.12,0.59
411169508,0,20.12,0,1399.00,0.74,-0.58,-0.87,0.96,0.36,0.72,0.12,0.59
411291053,0,19.65,0,1399.00,0.55,-0.92,-0.60,0.24,0.36,0.72,0.12,0.59
411420763,0,20.12,0,1399.00,0.45,0.59,-1.26,0.89,0.36,0.71,0.12,0.59
411541119,0,20.12,0,1399.00,0.41,-1.06,-1.19,0.76,0.36,0.72,0.12,0.59
411671298,0,19.65,0,1399.00,0.33,1.05,-0.67,0.62,0.36,0.72,0.12,0.59
411791051,0,18.71,0,1399.00,0.28,0.10,-0.33,0.19,0.36,0.72,0.12,0.59
411917687,0,19.65,0,1399.00,0.28,1.65,-0.61,1.39,0.36,0.71,0.12,0.59
412041054,0,20.12,0,1399.00,0.28,-0.77,-0.21,0.05,0.36,0.71,0.12,0.59
412167704,0,20.12,0,1400.75,4.22,1.46,-0.36,0.30,0.36,0.71,0.12,0.59
412291053,0,19.18,0,1400.75,3.01,-0.24,0.17,1.73,0.36,0.72,0.12,0.59
412417687,0,19.18,0,1400.75,2.04,-0.07,1.49,-0.30,0.36,0.72,0.12,0.59
412541055,0,20.12,0,1400.75,1.48,2.60,0.17,0.81,0.36,0.72,0.12,0.59
412668051,0,18.71,0,1400.75,1.07,-0.43,-1.26,-0.04,0.36,0.72,0.12,0.59
412791051,0,19.18,0,1400.75,0.75,1.13,-0.72,0.64,0.36,0.72,0.12,0.59
412919310,0,19.65,0,1400.75,0.61,0.84,-0.23,1.24,0.36,0.71,0.12,0.59
413041053,0,19.18,0,1400.75,0.50,-0.82,-1.14,0.21,0.36,0.72,0.12,0.59
413170537,0,19.65,0,1402.56,4.40,0.20,-1.34,0.90,0.36,0.72,0.12,0.59
413291053,0,19.18,0,1402.56,3.11,0.81,-0.89,0.74,0.36,0.72,0.12,0.59
413421272,0,20.12,0,1402.56,2.11,0.70,-0.88,0.33,0.36,0.72,0.12,0.59
413541054,0,20.12,0,1402.56,1.51,1.24,-0.02,1.08,0.36,0.72,0.12,0.59
413667710,0,19.65,0,1402.56,1.09,0.42,-0.77,0.18,0.36,0.71,0.12,0.59
413791055,0,19.65,0,1402.56,0.82,0.03,0.00,0.66,0.36,0.71,0.12,0.59
413917679,0,19.18,0,1402.56,0.65,-1.10,-0.51,1.18,0.36,0.72,0.12,0.59
414041051,0,20.12,0,1402.56,0.49,1.19,-0.67,0.39,0.36,0.72,0.12,0.59
414167716,0,20.12,0,1399.94,-5.19,0.54,-0.67,0.45,0.36,0.72,0.12,0.59
414291054,0,19.65,0,1399.94,-3.48,1.37,-0.42,0.69,0.36,0.72,0.12,0.59
414418111,0,19.18,0,1399.94,-2.21,-0.10,-0.60,1.07,0.36,0.71,0.12,0.59
414541054,0,19.65,0,1399.94,-1.46,-0.40,-0.88,0.54,0.36,0.71,0.12,0.59
414669351,0,19.65,0,1399.94,-0.87,0.14,-1.10,1.20,0.36,0.71,0.12,0.59
414791052,0,20.12,0,1399.94,-0.49,0.20,-1.70,0.76,0.36,0.72,0.12,0.59
414919993,0,19.18,0,1399.94,-0.26,1.62,-0.56,0.46,0.35,0.72,0.12,0.59
415041240,0,19.65,0,1403.56,10.82,0.14,-0.68,0.19,0.35,0.72,0.12,0.59
415167752,0,19.18,0,1403.56,7.24,2.63,-1.01,1.24,0.35,0.72,0.12,0.59
415291052,0,20.12,0,1403.56,5.01,-0.01,-0.51,0.27,0.35,0.72,0.12,0.59
415417741,0,19.18,0,1403.56,3.41,2.78,-1.05,0.72,0.35,0.71,0.12,0.59
415541053,0,19.65,0,1403.56,2.43,-0.90,-2.59,1.21,0.35,0.71,0.12,0.59
415667753,0,19.65,0,1403.56,1.67,1.35,0.24,0.53,0.35,0.71,0.12,0.59
415791052,0,20.12,0,1403.56,1.22,0.36,0.37,1.30,0.35,0.71,0.13,0.59
415917750,0,19.65,0,1403.56,0.88,0.65,-0.43,0.16,0.35,0.72,0.13,0.59
416041056,1,19.65,0,1401.12,-6.71,0.11,0.65,0.98,0.35,0.71,0.13,0.59
416178222,1,19.18,0,1401.12,-4.19,-0.38,-0.31,1.32,0.35,0.71,0.13,0.59
416301781,1,19.65,0,1401.12,-2.81,-0.25,-1.76,-0.11,0.35,0.71,0.13,0.59
416429580,1,19.65,0,1401.12,-1.79,0.32,-0.98,0.94,0.35,0.71,0.13,0.59
416551781,1,19.18,0,1401.12,-1.15,0.97,-1.42,0.97,0.35,0.71,0.13,0.59
416680611,1,19.65,0,1401.12,-0.71,1.18,-1.51,-0.20,0.34,0.71,0.13,0.60
416801781,1,19.65,0,1401.12,-0.41,0.76,-1.76,0.68,0.35,0.71,0.13,0.60
416927721,1,20.12,0,1401.12,-0.15,0.28,-1.23,0.81,0.35,0.71,0.14,0.60
417051780,1,19.65,0,1402.50,3.67,0.00,0.60,0.29,0.35,0.71,0.14,0.59
417177681,1,19.65,0,1402.50,2.56,0.85,0.15,1.43,0.35,0.71,0.14,0.59
417301780,1,19.18,0,1402.50,1.82,0.19,-1.38,0.46,0.35,0.71,0.14,0.59
417427913,1,19.65,0,1402.50,1.28,1.02,-0.17,1.26,0.35,0.71,0.15,0.59
417551780,1,20.12,0,1402.50,0.99,0.16,0.69,0.93,0.35,0.71,0.15,0.59
417677691,1,19.18,0,1402.50,0.71,0.26,-0.34,0.74,0.35,0.71,0.15,0.59
417801783,1,19.65,0,1402.50,0.58,0.61,-1.14,0.50,0.35,0.71,0.15,0.59
417928281,1,19.18,0,1402.50,0.48,0.30,-2.06,1.27,0.35,0.71,0.15,0.59
418051784,1,18.71,0,1401.62,-1.92,-0.20,-0.54,0.79,0.35,0.71,0.15,0.59
418179402,1,20.12,0,1401.62,-1.18,0.25,-1.49,0.16,0.35,0.71,0.15,0.59
418301783,1,20.12,0,1401.62,-0.76,-0.43,-1.81,0.90,0.35,0.71,0.15,0.59
418427960,1,19.65,0,1401.62,-0.40,0.58,-0.59,0.91,0.35,0.71,0.15,0.59
418551782,1,20.12,0,1401.62,-0.21,0.17,-1.01,0.27,0.35,0.71,0.15,0.59
418681353,1,19.65,0,1401.62,-0.04,2.56,0.18,1.13,0.35,0.71,0.15,0.59
418801781,1,19.65,0,1401.62,0.04,0.88,-0.11,0.17,0.35,0.71,0.15,0.59
418927755,1,20.12,0,1401.62,0.14,1.55,-0.02,0.64,0.35,0.71,0.15,0.59
419051782,1,19.18,0,1403.50,4.97,0.17,-0.74,0.52,0.35,0.71,0.15,0.59
419177747,1,20.12,0,1403.50,3.38,0.60,-0.02,1.31,0.35,0.71,0.16,0.59
419301780,1,19.18,0,1403.50,2.43,-1.05,-0.41,1.07,0.35,0.71,0.16,0.59
419427945,1,19.65,0,1403.50,1.67,-0.98,-0.14,1.19,0.34,0.71,0.16,0.59
419551781,1,19.18,0,1403.50,1.24,1.15,-1.35,0.72,0.34,0.71,0.16,0.59
419677995,1,19.65,0,1403.50,0.87,0.14,-0.74,0.77,0.34,0.71,0.16,0.60
419801781,1,19.65,0,1403.50,0.69,2.15,-1.25,0.46,0.34,0.71,0.16,0.60
419919500,2,20.12,0,1403.50,0.52,0.30,-0.60,0.81,0.34,0.71,0.16,0.60
419929393,2,19.65,30,1403.50,0.52,-1.02,-1.45,0.98,0.34,0.71,0.16,0.60
420051779,2,19.65,30,1401.38,-4.86,1.15,-0.50,0.66,0.34,0.71,0.16,0.60
420177766,2,20.12,30,1401.38,-3.10,-0.54,-1.58,0.79,0.34,0.71,0.16,0.60
420301778,2,19.65,30,1401.38,-2.08,0.07,-1.72,0.60,0.34,0.71,0.16,0.60
420427953,2,19.65,30,1401.38,-1.29,1.06,0.05,1.03,0.34,0.71,0.16,0.60
420551780,2,19.65,30,1401.38,-0.79,-1.57,-0.41,0.47,0.34,0.71,0.16,0.60
420677769,2,19.65,30,1401.38,-0.45,1.37,-0.64,0.95,0.34,0.71,0.16,0.60
420801780,2,19.18,30,1401.38,-0.19,-0.85,-1.21,0.94,0.34,0.71,0.16,0.60
420919754,3,19.18,30,1401.38,-0.10,1.13,-0.31,0.58,0.34,0.71,0.16,0.60
420921674,4,19.65,30,1401.38,-0.10,1.13,-0.31,0.58,0.34,0.71,0.16,0.60
420927860,4,19.18,0,1401.38,-0.09,-0.05,-0.95,0.73,0.34,0.71,0.16,0.60
421051779,4,20.12,0,1400.50,-2.07,1.06,-0.73,1.45,0.34,0.71,0.16,0.60
421177821,4,19.65,0,1400.50,-1.27,-0.55,-1.87,0.65,0.34,0.71,0.16,0.60
421301779,4,20.12,0,1400.50,-0.82,0.96,-0.67,0.80,0.34,0.71,0.16,0.60
421428649,4,19.18,0,1400.50,-0.43,0.02,-0.87,0.94,0.34,0.71,0.16,0.60
421551780,4,19.65,0,1400.50,-0.23,0.39,-0.72,0.70,0.34,0.71,0.16,0.60
421679492,4,19.65,0,1400.50,-0.06,0.97,0.06,0.96,0.34,0.71,0.16,0.60
421801780,4,19.65,0,1400.50,0.05,-0.03,-0.50,0.56,0.34,0.71,0.16,0.60
421930737,4,19.65,0,1400.50,0.18,-1.01,-0.13,0.97,0.33,0.71,0.17,0.60
422051778,4,19.18,0,1401.75,2.97,0.35,-1.52,-0.13,0.33,0.71,0.17,0.60
422181247,4,19.18,0,1401.75,2.02,0.56,0.26,-0.21,0.33,0.71,0.17,0.60
422301780,4,19.65,0,1401.75,1.48,0.00,-1.08,1.35,0.33,0.71,0.17,0.60
422427942,4,19.65,0,1401.75,1.13,0.29,-1.38,0.74,0.33,0.71,0.17,0.60
422551779,4,19.18,0,1401.75,0.84,-1.06,-1.41,0.19,0.33,0.71,0.17,0.60
422677670,4,20.12,0,1401.75,0.61,2.08,-0.80,0.83,0.33,0.71,0.17,0.60
422801779,4,19.65,0,1401.75,0.51,0.47,-2.24,0.85,0.33,0.71,0.17,0.60
422927664,4,19.65,0,1401.75,0.42,-0.20,-1.20,0.95,0.33,0.71,0.17,0.60
423051779,4,19.65,0,1399.94,-3.57,1.87,0.58,1.02,0.33,0.71,0.17,0.60
423178023,4,19.65,0,1399.94,-2.28,0.01,-1.76,0.64,0.32,0.71,0.18,0.60
423301778,4,20.12,0,1399.94,-1.51,0.68,-0.52,0.41,0.32,0.71,0.18,0.60
423429399,4,19.65,0,1399.94,-0.90,1.41,-1.57,1.39,0.32,0.71,0.18,0.60
423551778,4,20.12,0,1399.94,-0.60,0.64,-0.97,-0.14,0.32,0.71,0.18,0.61
423680417,4,20.12,0,1399.94,-0.26,1.41,-0.78,1.66,0.32,0.71,0.18,0.61
423801779,4,19.65,0,1399.94,-0.10,-0.28,-1.34,0.33,0.32,0.71,0.18,0.61
423931213,4,20.12,0,1401.56,5.09,1.46,-0.31,1.15,0.32,0.71,0.18,0.61
424051778,4,20.12,0,1401.56,3.57,-0.16,-0.66,0.76,0.31,0.71,0.18,0.61
424177678,4,19.18,0,1401.56,2.44,0.01,-0.16,0.52,0.31,0.71,0.19,0.61
424301780,4,19.65,0,1401.56,1.78,0.90,-0.34,1.37,0.31,0.71,0.19,0.61
424427904,4,19.65,0,1401.56,1.28,0.62,-1.22,0.76,0.31,0.71,0.19,0.61
424551778,4,20.58,0,1401.56,0.93,0.57,-0.02,0.98,0.31,0.71,0.19,0.61
424677670,4,20.12,0,1401.56,0.75,1.74,-1.41,1.17,0.31,0.71,0.19,0.61
424801779,4,19.18,0,1401.56,0.59,-0.63,-0.99,0.92,0.31,0.71,0.19,0.61
424927807,4,19.65,0,1402.81,4.26,0.53,-0.17,1.38,0.31,0.71,0.19,0.61
425051776,4,20.12,0,1402.81,3.01,0.58,-1.35,0.32,0.31,0.71,0.19,0.61
425179036,4,19.18,0,1402.81,2.07,0.12,-0.82,0.65,0.31,0.71,0.19,0.61
425301778,4,20.12,0,1402.81,1.51,0.43,-0.53,0.92,0.31,0.71,0.19,0.61
425427925,4,20.12,0,1402.81,1.12,0.34,-1.44,0.81,0.30,0.71,0.19,0.61
425551778,4,19.18,0,1402.81,0.82,1.30,-1.91,0.62,0.30,0.71,0.19,0.61
425677657,4,19.65,0,1402.81,0.65,-0.35,-1.01,1.01,0.30,0.71,0.19,0.61
425801778,4,19.18,0,1402.81,0.53,0.37,-1.29,0.54,0.30,0.71,0.19,0.61
425927663,4,19.18,0,1404.56,5.59,0.72,-1.06,1.53,0.30,0.71,0.19,0.61
426051779,4,19.65,0,1404.56,3.92,0.43,-1.18,0.41,0.30,0.71,0.19,0.61
426177663,4,20.12,0,1404.56,2.70,0.22,-0.58,1.19,0.30,0.71,0.19,0.61
426301778,4,20.12,0,1404.56,1.94,0.37,-0.05,1.07,0.30,0.71,0.19,0.61
426427927,4,19.65,0,1404.56,1.37,-0.31,0.56,1.05,0.30,0.71,0.19,0.61
426551776,4,19.65,0,1404.56,1.06,-1.06,-0.04,0.96,0.30,0.71,0.19,0.61
426677662,4,19.65,0,1404.56,0.80,0.01,-1.73,1.02,0.30,0.71,0.19,0.61
426801779,4,19.18,0,1404.56,0.65,0.88,-1.36,1.14,0.29,0.71,0.19,0.61
426927674,4,19.65,0,1404.44,0.18,0.31,-0.79,0.58,0.29,0.71,0.19,0.61
427051778,4,20.12,0,1404.44,0.20,-0.32,-0.25,0.68,0.29,0.71,0.18,0.61
427177669,4,19.65,0,1404.44,0.25,0.62,-0.64,0.67,0.29,0.71,0.18,0.61
427301777,4,20.12,0,1404.44,0.25,0.56,-1.25,1.13,0.29,0.71,0.18,0.61
427431550,4,19.65,0,1404.44,0.27,2.18,0.61,0.68,0.29,0.71,0.18,0.61
427551777,4,19.65,0,1404.44,0.29,0.00,-0.80,0.64,0.29,0.71,0.19,0.61
427677666,4,20.12,0,1404.44,0.27,2.76,0.54,0.64,0.29,0.71,0.19,0.61
427801779,4,20.12,0,1404.44,0.28,0.86,-0.52,1.06,0.29,0.71,0.19,0.61
427927688,4,20.12,0,1403.44,-2.37,0.20,-0.71,0.87,0.29,0.71,0.19,0.61
428051778,4,20.12,0,1403.44,-1.52,-0.75,-0.54,0.69,0.29,0.71,0.19,0.61
428177689,4,19.18,0,1403.44,-0.91,-0.07,-0.20,1.25,0.29,0.71,0.19,0.61
428301765,4,20.58,0,1403.44,-0.53,0.01,-0.43,1.11,0.29,0.71,0.19,0.61
428427963,4,20.12,0,1403.44,-0.26,-0.39,-0.85,0.08,0.29,0.71,0.19,0.61
428551765,4,19.18,0,1403.44,-0.08,-0.01,-0.42,0.68,0.29,0.71,0.19,0.61
428678559,4,20.12,0,1403.44,0.06,-1.45,-0.97,1.37,0.29,0.71,0.19,0.61
428801766,4,19.65,0,1403.44,0.13,0.29,-0.64,0.34,0.29,0.71,0.19,0.61
428927687,4,19.65,0,1403.12,-0.61,-0.97,-0.32,1.03,0.29,0.71,0.19,0.61
429051767,4,19.65,0,1403.12,-0.33,1.05,-1.09,0.39,0.29,0.71,0.19,0.61
429177750,4,19.65,0,1403.12,-0.13,-0.78,0.12,1.88,0.29,0.71,0.19,0.61
429301764,4,19.65,0,1403.12,0.04,-0.92,-1.14,0.94,0.29,0.71,0.19,0.61
429427921,4,20.12,0,1403.12,0.11,-0.28,0.14,0.24,0.29,0.71,0.19,0.61
429551778,4,20.12,0,1403.12,0.17,-0.60,-0.64,1.37,0.29,0.71,0.19,0.61
429677668,4,19.65,0,1403.12,0.23,-0.67,-2.62,1.22,0.29,0.71,0.19,0.61
429801780,4,20.12,0,1403.12,0.25,0.38,-0.19,1.09,0.29,0.71,0.19,0.61
429927686,4,19.18,0,1402.06,-2.39,0.21,-0.93,0.60,0.29,0.71,0.19,0.61
430051780,4,20.12,0,1402.06,-1.53,0.80,1.08,0.87,0.29,0.71,0.19,0.61
430177675,4,19.65,0,1402.06,-0.93,0.60,0.54,0.75,0.29,0.71,0.19,0.62
430301780,4,19.65,0,1402.06,-0.54,1.49,0.15,1.18,0.29,0.71,0.19,0.62
430429006,4,19.18,0,1402.06,-0.27,-0.34,-1.76,0.28,0.29,0.71,0.19,0.62
430551778,4,19.65,0,1402.06,-0.07,1.04,-0.07,1.26,0.29,0.71,0.19,0.62
430679858,4,20.12,0,1402.06,0.08,0.55,0.00,0.77,0.29,0.71,0.19,0.61
430801780,4,19.65,0,1402.06,0.07,-0.70,-1.15,-0.26,0.29,0.71,0.19,0.62
430931153,4,20.12,0,1405.50,8.51,0.16,0.51,1.46,0.29,0.71,0.19,0.62
431051779,4,19.65,0,1405.50,5.90,-0.74,-2.50,1.02,0.29,0.71,0.19,0.62
431180765,4,19.65,0,1405.50,4.04,0.07,0.44,1.50,0.29,0.71,0.19,0.62
431301778,4,19.18,0,1405.50,2.86,0.04,-0.25,1.05,0.29,0.71,0.19,0.61
431427935,4,20.12,0,1405.50,1.95,-0.69,0.38,1.40,0.29,0.71,0.19,0.61
431551779,4,20.12,0,1405.50,1.47,-1.13,-0.59,0.51,0.29,0.71,0.19,0.61
431677669,4,19.18,0,1405.50,1.07,-0.90,-3.40,1.34,0.29,0.71,0.19,0.62
431801779,4,19.65,0,1405.50,0.82,-1.25,-0.03,1.87,0.29,0.71,0.19,0.62
431927721,4,19.18,0,1404.25,-2.14,1.06,0.41,0.80,0.29,0.71,0.19,0.62
432051780,4,20.12,0,1404.25,-1.43,1.08,-0.34,0.03,0.29,0.71,0.19,0.62
432178413,4,19.18,0,1404.25,-0.83,1.30,1.37,1.19,0.29,0.71,0.19,0.62
432301778,4,20.12,0,1404.25,-0.43,-0.94,-1.09,0.96,0.29,0.71,0.19,0.61
432429930,4,20.12,0,1404.25,-0.23,-0.56,-1.76,0.98,0.29,0.71,0.19,0.61
432551780,4,19.65,0,1404.25,-0.05,0.92,0.63,0.70,0.29,0.71,0.19,0.61
432680790,4,20.12,0,1404.25,0.04,2.02,-1.48,-0.05,0.29,0.71,0.19,0.61
432801779,4,20.12,0,1404.25,0.12,1.07,-0.64,1.38,0.29,0.71,0.19,0.61
432930083,4,19.65,0,1404.31,0.35,1.90,-0.32,0.83,0.29,0.71,0.19,0.62
433051777,4,19.65,0,1404.31,0.35,1.03,1.34,1.67,0.29,0.71,0.19,0.62
433177686,4,20.58,0,1404.31,0.34,-0.48,-0.27,0.38,0.29,0.71,0.19,0.61
433301779,4,19.18,0,1404.31,0.28,0.27,0.04,1.05,0.29,0.71,0.19,0.62
433427923,4,19.18,0,1404.31,0.32,-0.52,0.42,1.58,0.29,0.71,0.19,0.62
433551778,4,20.12,0,1404.31,0.30,1.14,-0.06,0.24,0.29,0.71,0.19,0.61
433677691,4,19.65,0,1404.31,0.30,1.43,0.36,1.28,0.29,0.71,0.19,0.62
433801778,4,19.65,0,1404.31,0.34,-0.79,-0.52,1.35,0.29,0.71,0.19,0.61
433928207,4,20.12,0,1404.81,1.33,-1.16,-1.61,0.20,0.29,0.71,0.19,0.61
434051780,4,19.18,0,1404.81,1.04,1.82,-0.65,1.73,0.29,0.71,0.19,0.61
434179486,4,19.65,0,1404.81,0.78,-1.48,-1.09,0.12,0.29,0.71,0.19,0.61
434301779,4,19.65,0,1404.81,0.62,0.73,-0.72,1.52,0.29,0.71,0.19,0.61
434429026,4,19.18,0,1404.81,0.54,0.16,-0.52,0.89,0.29,0.71,0.19,0.61
434551780,4,20.12,0,1404.81,0.45,0.36,-0.14,1.19,0.29,0.71,0.19,0.61
434677674,4,19.65,0,1404.81,0.41,-0.19,-1.02,0.85,0.29,0.71,0.19,0.61
434801778,4,19.65,0,1401.88,-8.76,0.29,0.20,0.62,0.29,0.71,0.19,0.61
434927710,4,19.65,0,1401.88,-5.72,0.75,-0.69,0.92,0.29,0.71,0.19,0.61
435051779,4,19.65,0,1401.88,-3.81,0.35,-0.09,1.10,0.29,0.71,0.19,0.61
435177711,4,19.65,0,1401.88,-2.40,-0.36,-1.03,1.22,0.29,0.71,0.19,0.61
435301779,4,20.12,0,1401.88,-1.58,0.04,-1.28,0.96,0.29,0.71,0.19,0.61
435427959,4,19.65,0,1401.88,-0.91,1.01,-0.24,1.03,0.29,0.71,0.19,0.61
435551778,4,20.12,0,1401.88,-0.53,-1.20,-1.34,0.55,0.29,0.71,0.19,0.61
435678052,4,20.58,0,1401.88,-0.27,0.96,-0.45,1.14,0.29,0.71,0.19,0.61
435801779,4,19.18,0,1403.56,5.00,1.10,-0.75,0.98,0.29,0.71,0.19,0.61
435929300,4,19.65,0,1403.56,3.43,0.21,-0.18,0.95,0.29,0.71,0.19,0.61
436051780,4,19.18,0,1403.56,2.43,1.42,-0.65,1.26,0.29,0.71,0.19,0.61
436177756,4,19.18,0,1403.56,1.72,0.16,-1.08,1.00,0.29,0.71,0.19,0.61
436301780,4,19.18,0,1403.56,1.29,-0.78,-0.89,1.39,0.29,0.71,0.19,0.61
436431528,4,19.18,0,1403.56,0.94,-0.40,-1.13,-0.01,0.29,0.71,0.19,0.61
436551779,4,20.12,0,1403.56,0.75,2.17,-0.91,1.72,0.29,0.71,0.19,0.61
436677765,4,19.65,0,1403.56,0.63,-1.66,-0.77,0.70,0.29,0.71,0.19,0.61
436801780,4,19.65,0,1402.50,-2.62,0.54,-0.43,0.18,0.29,0.71,0.19,0.61
436927772,4,20.12,0,1402.50,-1.63,0.68,-0.14,0.78,0.29,0.71,0.19,0.61
437051780,4,20.12,0,1402.50,-1.04,-0.10,-1.20,0.83,0.29,0.71,0.19,0.61
437177802,4,20.12,0,1402.50,-0.55,-0.72,-0.03,1.74,0.29,0.71,0.19,0.61
437301778,4,20.12,0,1402.50,-0.27,0.00,0.01,0.49,0.29,0.71,0.19,0.61
437428076,4,19.65,0,1402.50,-0.11,-0.02,-1.15,0.45,0.29,0.71,0.19,0.61
437551778,4,20.12,0,1402.50,0.05,-0.13,0.14,1.10,0.29,0.71,0.19,0.61
437678809,4,20.12,0,1402.50,0.11,-0.91,-0.94,0.56,0.29,0.71,0.19,0.61
437801780,4,19.65,0,1399.25,-8.76,1.41,-0.16,0.85,0.29,0.71,0.19,0.61
437927769,4,19.18,0,1399.25,-5.65,-0.76,-1.03,1.37,0.29,0.71,0.19,0.61
438051779,4,19.65,0,1399.25,-3.80,-0.49,-1.41,0.32,0.29,0.71,0.19,0.61
438177763,4,20.12,0,1399.25,-2.43,0.70,-0.61,1.54,0.29,0.71,0.19,0.61
438301779,4,19.65,0,1399.25,-1.56,0.32,-1.14,0.00,0.29,0.71,0.19,0.61
438427965,4,20.12,0,1399.25,-0.99,0.84,0.46,1.09,0.29,0.71,0.19,0.61
438551781,4,19.65,0,1399.25,-0.50,-0.26,-1.72,1.41,0.29,0.71,0.19,0.61
438677778,4,20.12,0,1399.25,-0.25,0.07,-1.51,1.18,0.28,0.71,0.19,0.61
438801780,4,19.18,0,1401.69,6.37,0.00,0.13,0.72,0.28,0.71,0.19,0.61
438927754,4,19.65,0,1401.69,4.34,1.10,-0.96,1.17,0.28,0.71,0.19,0.61
439051778,4,19.65,0,1401.69,3.06,-1.02,-1.05,1.77,0.28,0.71,0.20,0.61
439177778,4,19.65,0,1401.69,2.15,-0.07,-0.59,0.62,0.28,0.71,0.19,0.61
439301780,4,20.58,0,1401.69,1.54,0.50,-0.78,0.03,0.28,0.71,0.19,0.61
439429210,4,20.12,0,1401.69,1.10,-0.94,0.21,0.72,0.28,0.71,0.20,0.61
439551777,4,20.12,0,1401.69,0.86,0.35,-1.63,0.94,0.28,0.71,0.20,0.61
439680105,4,19.65,0,1401.69,0.70,-0.53,0.10,1.24,0.29,0.71,0.20,0.61
439801778,4,20.12,0,1400.12,-3.46,-0.27,-0.56,0.26,0.29,0.71,0.20,0.61
439931392,4,20.12,0,1400.12,-2.21,0.61,-0.47,0.91,0.29,0.71,0.19,0.61
440051778,4,19.65,0,1400.12,-1.39,1.73,-1.20,1.39,0.28,0.71,0.19,0.61
440178519,4,19.18,0,1400.12,-0.84,-0.60,-1.49,0.11,0.28,0.71,0.19,0.61
440301781,4,19.18,0,1400.12,-0.49,1.32,-0.19,1.25,0.28,0.71,0.19,0.61
440427932,4,20.12,0,1400.12,-0.21,-0.78,-0.99,0.11,0.29,0.71,0.19,0.61
440551780,4,20.12,0,1400.12,-0.07,0.43,0.15,1.40,0.29,0.71,0.19,0.61
440677657,4,19.18,0,1400.12,0.10,-1.12,0.03,1.05,0.29,0.71,0.19,0.61
440801779,4,20.12,0,1401.81,4.34,0.26,-0.55,0.71,0.29,0.71,0.19,0.61
440927674,4,19.65,0,1401.81,2.99,-1.83,-0.26,1.56,0.29,0.71,0.19,0.61
441051779,4,19.65,0,1401.81,2.13,-0.36,0.35,0.81,0.29,0.71,0.19,0.61
441178403,4,20.12,0,1401.81,1.52,-0.20,-0.62,0.98,0.29,0.71,0.19,0.61
441301778,4,19.18,0,1401.81,1.11,0.38,-1.16,0.51,0.29,0.71,0.19,0.61
441429923,4,20.12,0,1401.81,0.82,0.42,0.05,1.13,0.29,0.71,0.19,0.61
441551779,4,20.12,0,1401.81,0.67,-0.60,-0.77,0.79,0.29,0.71,0.19,0.61
441680934,4,20.12,0,1401.81,0.55,2.24,0.27,1.45,0.29,0.71,0.19,0.61
441801776,4,19.65,0,1401.06,-1.21,0.95,-1.55,2.78,0.29,0.71,0.19,0.61
441928612,4,19.65,0,1401.06,-0.81,-1.41,-1.09,-2.07,0.29,0.71,0.19,0.61
442051780,4,19.65,0,1401.06,-0.41,3.35,2.32,2.77,0.29,0.71,0.19,0.61
442177677,4,19.65,0,1401.06,-0.23,0.41,-0.15,0.97,0.29,0.71,0.19,0.61
442301778,4,20.12,0,1401.06,-0.15,0.38,-0.25,-1.38,0.29,0.71,0.19,0.61
442427925,4,20.12,0,1401.06,0.09,2.16,0.25,3.07,0.29,0.71,0.19,0.61
442551779,4,20.12,0,1401.06,0.28,0.76,-2.79,2.22,0.30,0.71,0.19,0.61
442677658,4,20.12,0,1401.06,0.18,0.45,0.00,-2.36,0.29,0.71,0.19,0.61
442801778,4,20.12,0,1399.94,-2.49,1.80,0.75,2.14,0.30,0.71,0.19,0.61
442928419,4,20.58,0,1399.94,-1.37,1.23,-1.11,-0.13,0.30,0.71,0.19,0.61
443051778,4,20.12,0,1399.94,-0.92,-1.37,-1.83,0.45,0.30,0.71,0.19,0.61
443179483,4,19.65,0,1399.94,-0.51,2.85,1.58,-0.18,0.30,0.71,0.19,0.61
443301780,4,19.65,0,1399.94,-0.16,1.38,-0.09,2.76,0.29,0.71,0.19,0.61
443427935,4,19.65,0,1399.94,-0.11,-0.43,-0.07,-0.37,0.29,0.71,0.19,0.61
443551777,4,19.65,0,1399.94,-0.06,3.17,0.28,0.92,0.29,0.71,0.19,0.61
443677670,4,20.58,0,1399.94,0.17,-0.81,-0.59,3.25,0.30,0.71,0.19,0.61
443801779,4,19.18,0,1399.62,-0.44,-1.54,-0.21,0.60,0.30,0.71,0.19,0.61
443927686,4,19.65,0,1399.62,-0.21,0.15,0.38,1.38,0.30,0.71,0.19,0.61
444051779,4,20.58,0,1399.62,-0.04,-0.59,0.85,1.05,0.30,0.71,0.19,0.61
444177672,4,20.58,0,1399.62,0.00,1.14,1.11,-0.10,0.30,0.71,0.19,0.61
444301779,4,19.65,0,1399.62,0.12,0.82,-0.66,1.23,0.30,0.71,0.19,0.61
444427916,4,19.65,0,1399.62,0.23,0.90,-1.93,1.36,0.29,0.71,0.19,0.61
444551779,4,20.12,0,1399.62,0.23,-0.22,-1.42,0.41,0.29,0.71,0.19,0.61
444677909,4,20.12,0,1401.81,7.07,1.32,-0.10,1.01,0.29,0.71,0.19,0.61
444801779,4,20.12,0,1401.81,4.90,-0.74,-0.63,0.29,0.29,0.71,0.19,0.61
444927653,4,20.12,0,1401.81,3.36,0.43,0.40,1.07,0.29,0.71,0.19,0.61
445051776,4,19.18,0,1401.81,2.39,-0.90,-1.19,1.25,0.29,0.71,0.19,0.61
445177720,4,20.12,0,1401.81,1.70,0.80,-1.18,0.50,0.29,0.71,0.19,0.61
445301776,4,20.12,0,1401.81,1.24,0.31,-0.08,0.73,0.29,0.71,0.19,0.61
445427930,4,20.12,0,1401.81,0.92,0.46,-0.67,0.92,0.29,0.71,0.19,0.61
445551778,4,20.12,0,1401.81,0.73,-0.10,-0.50,1.39,0.29,0.71,0.19,0.61
445677704,4,20.12,0,1400.50,-3.36,0.97,-0.72,0.62,0.29,0.71,0.19,0.61
445801778,4,19.18,0,1400.50,-2.21,0.70,-2.14,0.78,0.29,0.71,0.19,0.62
445927700,4,20.12,0,1400.50,-1.37,-1.33,-2.29,0.82,0.29,0.71,0.19,0.62
446051776,4,20.12,0,1400.50,-0.82,0.87,-0.63,1.14,0.29,0.71,0.20,0.61
446177682,4,20.58,0,1400.50,-0.46,0.71,-1.55,1.03,0.29,0.71,0.20,0.61
446301779,4,20.58,0,1400.50,-0.20,1.16,-0.76,0.45,0.29,0.71,0.20,0.61
446428243,4,20.58,0,1400.50,-0.04,-1.44,-0.34,1.17,0.29,0.71,0.20,0.61
446551778,4,20.12,0,1400.50,0.08,1.22,0.01,1.71,0.29,0.71,0.20,0.61
446677667,4,19.65,0,1400.75,0.90,-0.61,-1.29,0.60,0.29,0.71,0.20,0.61
446801776,4,20.12,0,1400.75,0.67,0.67,-0.64,0.78,0.29,0.71,0.20,0.61
446927655,4,20.12,0,1400.75,0.55,1.00,0.15,1.66,0.29,0.71,0.19,0.62
447051776,4,20.12,0,1400.75,0.52,-1.06,-2.02,0.33,0.28,0.71,0.19,0.62
447177668,4,20.12,0,1400.75,0.40,0.96,-0.46,1.08,0.28,0.71,0.19,0.62
447301777,4,19.18,0,1400.75,0.39,1.37,0.53,1.13,0.28,0.71,0.19,0.62
447427922,4,19.65,0,1400.75,0.33,-0.21,-2.03,0.45,0.28,0.71,0.19,0.62
447551778,4,19.65,0,1400.75,0.30,0.61,0.26,1.41,0.28,0.71,0.19,0.62
447677649,4,19.65,0,1402.06,3.92,0.13,-1.01,1.11,0.28,0.71,0.19,0.62
447801778,4,20.12,0,1402.06,2.81,-1.30,-1.10,1.33,0.28,0.71,0.20,0.62
447927662,4,20.58,0,1402.06,1.94,-0.33,-0.33,0.46,0.28,0.71,0.19,0.62
448051778,4,20.12,0,1402.06,1.43,-0.84,-0.36,1.17,0.28,0.71,0.19,0.62
448177733,4,19.65,0,1402.06,1.03,0.28,-0.31,0.71,0.28,0.71,0.19,0.62
448301767,4,19.18,0,1402.06,0.81,1.59,-0.44,1.28,0.28,0.71,0.19,0.62
448429209,4,20.58,0,1402.06,0.67,-0.91,-0.01,1.11,0.28,0.71,0.19,0.62
448551764,4,20.12,0,1402.06,0.52,-0.16,-0.88,0.84,0.28,0.71,0.19,0.62
448680040,4,19.65,0,1400.56,-3.50,-0.17,-0.81,0.89,0.28,0.71,0.19,0.62
448801765,4,20.12,0,1400.56,-2.37,-0.33,-0.86,0.00,0.28,0.71,0.20,0.62
448931156,4,20.12,0,1400.56,-1.47,1.59,-0.51,1.22,0.28,0.71,0.20,0.62
449051766,4,19.65,0,1400.56,-0.86,-1.34,0.14,1.99,0.28,0.71,0.20,0.62
449180431,4,19.65,0,1400.56,-0.47,0.00,-0.83,0.45,0.28,0.71,0.20,0.62
449301764,4,20.12,0,1400.56,-0.24,0.60,0.00,0.88,0.28,0.71,0.20,0.62
449427950,4,20.12,0,1400.56,-0.08,-0.28,-1.15,0.87,0.28,0.71,0.20,0.62
449551778,4,20.58,0,1400.56,0.04,0.89,-0.59,1.02,0.28,0.71,0.20,0.62
449677670,4,20.12,0,1401.38,2.24,-0.51,-1.62,1.25,0.28,0.71,0.20,0.62
449801781,4,20.58,0,1401.38,1.62,0.25,-1.28,0.06,0.28,0.71,0.20,0.62
449927662,4,19.65,0,1401.38,1.16,-0.39,-0.80,1.51,0.28,0.71,0.20,0.62
450051779,4,19.65,0,1401.38,0.90,-0.41,-0.40,0.43,0.28,0.71,0.20,0.62
450178199,4,19.65,0,1401.38,0.70,0.40,-1.05,1.19,0.28,0.71,0.20,0.62
450301779,4,19.65,0,1401.38,0.60,1.08,-0.62,0.90,0.28,0.71,0.20,0.62
450429531,4,19.65,0,1401.38,0.49,0.40,0.13,0.83,0.28,0.71,0.20,0.62
450551777,4,20.12,0,1401.38,0.37,-0.78,0.28,0.35,0.28,0.71,0.20,0.62
450680395,4,20.58,0,1403.50,5.68,1.86,0.08,1.54,0.28,0.70,0.20,0.62
450801778,4,19.65,0,1403.50,3.98,-1.41,-0.40,0.09,0.28,0.70,0.20,0.62
450931249,4,20.12,0,1403.50,2.73,0.87,0.22,1.44,0.28,0.70,0.20,0.62
451051778,4,20.58,0,1403.50,2.03,1.12,-0.63,1.56,0.28,0.70,0.20,0.62
451177680,4,20.12,0,1403.50,1.40,-0.88,-0.72,0.43,0.28,0.71,0.20,0.62
451301778,4,20.58,0,1403.50,1.04,1.81,-0.57,1.16,0.28,0.71,0.20,0.62
451427928,4,19.65,0,1403.50,0.81,-0.42,-0.73,1.18,0.28,0.71,0.20,0.62
451551777,4,19.65,0,1403.50,0.65,0.40,0.67,0.97,0.28,0.71,0.20,0.62
451677689,4,20.12,0,1403.62,0.90,-0.98,-2.01,0.82,0.28,0.71,0.20,0.62
451801778,4,19.65,0,1403.62,0.63,-0.37,-1.42,-0.39,0.28,0.71,0.20,0.62
451927693,4,20.58,0,1403.62,0.51,0.82,-0.56,1.32,0.27,0.71,0.20,0.62
452051778,4,20.12,0,1403.62,0.48,-0.34,-1.64,1.43,0.27,0.71,0.20,0.62
452178748,4,20.12,0,1403.62,0.42,-0.23,-0.59,1.10,0.27,0.71,0.20,0.62
452301778,4,19.65,0,1403.62,0.39,1.26,-0.14,0.78,0.27,0.71,0.20,0.62
452430127,4,20.12,0,1403.62,0.35,0.03,-0.58,0.38,0.27,0.71,0.20,0.62
452551779,4,20.58,0,1403.62,0.27,1.37,-0.97,1.18,0.27,0.71,0.20,0.62
452681154,4,20.12,0,1401.00,-5.57,2.05,-0.59,1.17,0.27,0.71,0.20,0.62
452801780,4,19.65,0,1401.00,-3.77,-1.56,-1.71,-0.10,0.28,0.71,0.20,0.62
452927701,4,20.12,0,1401.00,-2.40,1.91,0.58,1.67,0.28,0.70,0.20,0.62
453051780,4,19.65,0,1401.00,-1.53,-1.75,-1.21,0.14,0.28,0.71,0.20,0.62
453177759,4,19.65,0,1401.00,-0.96,0.78,-0.70,1.07,0.28,0.70,0.20,0.62
453301778,4,19.65,0,1401.00,-0.50,0.56,0.28,1.76,0.28,0.70,0.20,0.62
453427955,4,20.12,0,1401.00,-0.20,-1.72,-2.15,0.45,0.28,0.71,0.20,0.62
453551778,4,20.12,0,1401.00,-0.10,0.76,-1.75,0.19,0.28,0.71,0.20,0.62
453677704,4,20.58,0,1403.62,5.84,2.05,0.89,1.46,0.27,0.71,0.20,0.62
453801779,4,20.58,0,1403.62,4.09,0.89,-1.25,1.24,0.27,0.71,0.20,0.62
453928444,4,20.12,0,1403.62,2.83,1.24,-0.97,-0.02,0.27,0.71,0.20,0.62
454051777,4,20.58,0,1403.62,1.94,0.32,0.34,-0.30,0.27,0.71,0.20,0.62
454179467,4,20.58,0,1403.62,1.40,1.66,0.27,1.70,0.27,0.70,0.20,0.62
454301780,4,20.58,0,1403.62,1.09,-0.25,-1.90,1.16,0.27,0.70,0.20,0.62
454430817,4,20.12,0,1403.62,0.84,0.28,-0.42,1.27,0.27,0.70,0.20,0.62
454551779,4,20.12,0,1403.62,0.68,-0.78,-0.47,0.50,0.27,0.71,0.20,0.62
454677703,4,20.58,0,1403.38,-0.05,0.87,-0.47,1.14,0.27,0.71,0.20,0.62
454801780,4,21.05,0,1403.38,0.16,1.42,-0.35,2.07,0.27,0.71,0.20,0.62
454927700,4,19.65,0,1403.38,0.14,-1.39,-1.35,0.27,0.27,0.71,0.20,0.62
455051778,4,20.12,0,1403.38,0.17,1.05,1.10,0.83,0.27,0.71,0.20,0.62
455177704,4,20.12,0,1403.38,0.27,-0.62,-1.06,1.54,0.27,0.71,0.20,0.62
455301780,4,20.12,0,1403.38,0.23,-0.58,-0.75,-0.27,0.27,0.71,0.20,0.62
455427938,4,20.58,0,1403.38,0.28,1.66,-0.36,2.12,0.27,0.70,0.20,0.62
455551778,4,19.65,0,1403.31,0.15,-1.53,-0.46,1.37,0.27,0.70,0.20,0.62
455677926,4,20.58,0,1403.31,0.15,-0.54,-1.25,-0.11,0.27,0.71,0.20,0.62
455801780,4,20.12,0,1403.31,0.17,1.20,-0.42,1.25,0.27,0.71,0.20,0.62
455929146,4,20.58,0,1403.31,0.24,-0.78,-0.13,1.52,0.27,0.70,0.20,0.62
456051778,4,20.58,0,1403.31,0.27,-0.25,-0.33,0.45,0.27,0.71,0.20,0.62
456177744,4,20.12,0,1403.31,0.27,1.23,0.12,1.17,0.27,0.70,0.20,0.62
456301778,4,20.58,0,1403.31,0.29,-0.45,-0.48,0.96,0.27,0.71,0.20,0.62
456427952,4,20.12,0,1403.31,0.29,0.62,0.09,0.69,0.27,0.71,0.20,0.62
456551782,4,19.65,0,1404.38,3.49,0.23,0.60,1.03,0.28,0.71,0.20,0.62
456677749,4,20.58,0,1404.38,2.46,0.30,0.44,0.85,0.27,0.71,0.20,0.62
456801778,4,19.65,0,1404.38,1.76,1.17,-1.12,0.74,0.27,0.71,0.20,0.62
456927744,4,20.58,0,1404.38,1.24,0.80,0.12,1.14,0.28,0.71,0.20,0.62
457051778,4,20.12,0,1404.38,0.94,-0.10,0.30,1.08,0.28,0.70,0.20,0.62
457177749,4,19.65,0,1404.38,0.73,0.00,-1.73,1.08,0.28,0.70,0.20,0.62
457301776,4,20.58,0,1404.38,0.62,1.44,-0.62,1.22,0.28,0.70,0.20,0.62
457428089,4,20.58,0,1404.38,0.51,-0.75,-0.43,1.16,0.28,0.70,0.20,0.62
457551777,4,19.65,0,1400.69,-9.98,0.34,0.57,1.13,0.28,0.70,0.20,0.62
457679036,4,19.65,0,1400.69,-6.49,-0.28,-0.49,0.54,0.28,0.71,0.20,0.62
457801778,4,20.58,0,1400.69,-4.40,0.21,-0.29,0.12,0.28,0.71,0.20,0.62
457930336,4,20.58,0,1400.69,-2.81,1.97,0.43,1.49,0.28,0.71,0.20,0.62
458051778,4,20.12,0,1400.69,-1.78,-1.08,-1.32,1.49,0.28,0.71,0.20,0.62
458181407,4,20.12,0,1400.69,-1.13,-0.91,-0.93,0.55,0.28,0.71,0.20,0.62
458301782,4,20.58,0,1400.69,-0.63,0.51,0.35,1.07,0.28,0.71,0.20,0.62
458427948,4,20.12,0,1400.69,-0.28,0.18,-2.11,1.60,0.28,0.71,0.19,0.62
458551778,4,20.12,0,1402.31,4.32,0.54,-1.94,0.59,0.28,0.71,0.20,0.62
458677654,4,20.58,0,1402.31,2.99,0.41,-0.13,1.24,0.28,0.71,0.20,0.62
458801779,4,19.65,0,1402.31,2.13,0.39,-1.45,0.77,0.28,0.71,0.20,0.62
458927668,4,20.58,0,1402.31,1.54,0.20,-0.17,0.58,0.28,0.71,0.20,0.62
459051779,4,20.58,0,1402.31,1.10,1.66,-0.52,0.65,0.27,0.71,0.20,0.62
459177666,4,20.12,0,1402.31,0.86,1.11,-0.04,0.54,0.27,0.71,0.20,0.62
459301778,4,20.58,0,1402.31,0.65,-0.70,-0.50,0.73,0.27,0.71,0.20,0.62
459428819,4,20.58,0,1402.31,0.56,1.09,0.34,1.16,0.27,0.71,0.20,0.62
459551779,4,20.12,0,1404.00,4.97,-1.15,-1.06,0.71,0.27,0.71,0.20,0.62
459679668,4,20.58,0,1404.00,3.37,-0.83,-0.06,1.12,0.27,0.71,0.20,0.62
459801778,4,20.12,0,1404.00,2.45,0.88,-1.18,0.92,0.27,0.71,0.20,0.62
459930748,4,20.12,0,1404.00,1.64,0.20,-2.28,-0.03,0.27,0.71,0.20,0.62
460051778,4,19.65,0,1404.00,1.29,1.12,0.66,2.37,0.28,0.71,0.20,0.62
460180613,4,21.05,0,1404.00,0.97,-1.45,-1.88,-0.59,0.27,0.71,0.20,0.62
460301777,4,20.58,0,1404.00,0.65,1.81,0.69,1.05,0.27,0.71,0.20,0.62
460427935,4,20.58,0,1404.00,0.64,0.41,-0.70,2.32,0.28,0.71,0.20,0.62
460551778,4,19.65,0,1404.88,2.78,-0.73,-0.99,0.19,0.28,0.71,0.20,0.62
460677671,4,19.65,0,1404.88,1.95,0.72,0.42,1.90,0.28,0.71,0.20,0.62
460801777,4,19.65,0,1404.88,1.45,0.75,1.41,0.27,0.28,0.71,0.20,0.62
460927670,4,20.58,0,1404.88,0.99,1.34,-1.60,0.59,0.28,0.71,0.20,0.62
461051776,4,19.65,0,1404.88,0.83,0.00,-0.59,1.36,0.28,0.71,0.20,0.62
461178254,4,20.12,0,1404.88,0.69,-0.75,-0.51,0.57,0.28,0.71,0.20,0.62
461301777,4,20.58,0,1404.88,0.51,-0.41,-0.88,1.17,0.28,0.71,0.20,0.62
461429534,4,20.12,0,1404.88,0.48,1.21,-1.66,1.65,0.28,0.71,0.20,0.62
461551778,4,20.58,0,1400.69,-10.05,-1.76,-1.46,0.08,0.28,0.71,0.20,0.62
461680051,4,20.12,0,1400.69,-6.54,1.31,1.18,1.68,0.28,0.71,0.20,0.62
461801774,4,19.65,0,1400.69,-4.36,-0.71,-1.84,1.03,0.28,0.71,0.20,0.62
461931255,4,20.58,0,1400.69,-2.78,-0.01,0.23,0.77,0.28,0.71,0.20,0.62
462051777,4,20.12,0,1400.69,-1.84,1.98,-1.42,0.22,0.28,0.71,0.20,0.62
462177691,4,20.58,0,1400.69,-1.14,0.70,-0.56,1.50,0.28,0.71,0.20,0.62
462301774,4,19.65,0,1400.69,-0.61,0.45,-1.86,0.92,0.28,0.71,0.20,0.62
462427932,4,20.12,0,1400.69,-0.35,-0.82,0.06,1.07,0.28,0.71,0.20,0.62
462551779,4,19.65,0,1401.62,2.08,0.81,1.37,1.03,0.28,0.71,0.20,0.62
462677659,4,20.12,0,1401.62,1.47,-1.02,-0.50,0.91,0.28,0.71,0.20,0.62
462801779,4,20.12,0,1401.62,1.07,1.30,-0.80,1.21,0.28,0.71,0.20,0.62
462927873,4,19.65,0,1401.62,0.86,1.20,-1.28,1.14,0.28,0.71,0.20,0.62
463051778,4,20.58,0,1401.62,0.70,-1.31,-0.96,0.17,0.28,0.71,0.20,0.62
463178916,4,19.65,0,1401.62,0.53,0.40,0.29,1.61,0.28,0.71,0.20,0.62
463301780,4,19.65,0,1401.62,0.52,-1.23,-0.83,1.76,0.28,0.71,0.20,0.62
463427913,4,20.58,0,1401.62,0.43,0.32,-0.28,0.20,0.28,0.71,0.20,0.62
463551780,4,19.65,0,1404.06,5.92,-0.04,0.40,1.02,0.28,0.71,0.20,0.62
463677664,4,19.65,0,1404.06,4.01,1.60,-1.41,0.81,0.28,0.71,0.20,0.62
463801776,4,20.58,0,1404.06,2.84,-0.43,-0.65,1.80,0.28,0.71,0.20,0.62
463927671,4,20.12,0,1404.06,2.01,0.27,-0.18,1.05,0.28,0.71,0.20,0.62
464051778,4,19.65,0,1404.06,1.47,-0.49,-0.44,1.09,0.28,0.71,0.20,0.62
464177658,4,20.58,0,1404.06,1.09,0.93,-0.33,1.05,0.28,0.71,0.20,0.62
464301777,4,20.12,0,1404.06,0.77,0.44,-2.20,1.35,0.28,0.71,0.20,0.62
464427919,4,20.58,0,1404.06,0.71,-1.21,-1.26,2.36,0.28,0.71,0.20,0.62
464551768,4,19.65,0,1402.81,-2.24,-2.05,-2.00,1.42,0.28,0.71,0.20,0.62
464677686,4,20.58,0,1402.81,-1.31,0.75,0.09,1.88,0.28,0.71,0.20,0.62
464801766,4,20.58,0,1402.81,-0.81,-1.88,-1.12,0.19,0.28,0.71,0.20,0.62
464927679,4,20.58,0,1402.81,-0.49,-0.31,-0.84,0.51,0.27,0.71,0.20,0.62
465051766,4,20.58,0,1402.81,-0.23,0.56,-0.69,0.63,0.27,0.71,0.20,0.62
465177698,4,20.58,0,1402.81,-0.01,1.24,-0.66,1.07,0.28,0.71,0.20,0.62
465301766,4,20.12,0,1402.81,0.09,-0.95,0.35,1.47,0.28,0.71,0.21,0.62
465427929,4,20.58,0,1404.06,4.06,-0.63,0.33,0.77,0.28,0.71,0.21,0.62
465551765,4,20.12,0,1404.06,2.86,-0.59,-1.82,0.18,0.28,0.71,0.21,0.62
465677653,4,19.65,0,1404.06,2.02,0.35,1.25,1.93,0.28,0.71,0.21,0.62
465801765,4,20.12,0,1404.06,1.47,0.62,-1.42,-0.36,0.28,0.71,0.20,0.62
465927687,4,19.65,0,1404.06,1.06,2.51,-0.45,1.78,0.27,0.71,0.20,0.62
466051779,4,20.12,0,1404.06,0.85,0.56,-1.03,0.96,0.27,0.71,0.20,0.62
466177670,4,20.58,0,1404.06,0.65,0.13,-2.23,1.65,0.27,0.71,0.20,0.62
466301778,4,19.65,0,1404.06,0.57,-0.08,-0.06,0.48,0.27,0.71,0.21,0.62
466427954,4,20.12,0,1401.81,-6.34,-0.26,-0.90,1.27,0.27,0.71,0.21,0.62
466551778,4,20.12,0,1401.81,-4.22,-0.41,0.54,0.91,0.28,0.70,0.21,0.62
466678407,4,19.65,0,1401.81,-2.67,0.57,-0.77,0.95,0.28,0.71,0.21,0.62
466801779,4,20.58,0,1401.81,-1.76,-0.27,-0.01,0.59,0.27,0.71,0.21,0.62
466929497,4,20.12,0,1401.81,-1.05,0.76,-0.10,0.73,0.27,0.71,0.21,0.62
467051779,4,20.12,0,1401.81,-0.61,-1.29,-0.82,1.28,0.27,0.71,0.21,0.62
467180611,4,20.58,0,1401.81,-0.32,0.49,-0.64,0.62,0.27,0.71,0.20,0.62
467301778,4,20.58,0,1401.81,-0.09,0.79,-0.08,1.74,0.27,0.71,0.20,0.62
467431500,4,21.05,0,1404.44,7.72,0.96,-2.10,0.37,0.27,0.71,0.20,0.62
467551778,4,20.12,0,1404.44,5.36,1.17,0.11,0.94,0.27,0.71,0.21,0.62
467677665,4,19.65,0,1404.44,3.65,0.33,-0.91,0.48,0.27,0.71,0.21,0.62
467801779,4,20.12,0,1404.44,2.63,2.02,-0.59,1.65,0.27,0.71,0.21,0.62
467927671,4,19.65,0,1404.44,1.85,0.18,-0.60,1.07,0.27,0.71,0.21,0.62
468051779,4,20.12,0,1404.44,1.35,-0.37,-0.74,0.85,0.27,0.71,0.21,0.62
468177658,4,19.65,0,1404.44,1.01,0.44,0.85,1.22,0.27,0.71,0.21,0.62
468301781,4,19.65,0,1404.44,0.79,1.45,0.65,1.68,0.27,0.71,0.21,0.62
468428007,4,20.58,0,1404.00,-0.53,-0.06,0.74,0.53,0.27,0.71,0.21,0.62
468551779,4,20.58,0,1404.00,-0.29,0.15,-1.02,0.60,0.27,0.71,0.21,0.62
468678984,4,20.58,0,1404.00,-0.09,1.16,0.59,0.96,0.27,0.71,0.21,0.62
468801779,4,20.12,0,1404.00,0.06,0.41,-1.12,1.05,0.27,0.71,0.21,0.62
468930042,4,20.58,0,1404.00,0.12,-0.10,-1.47,0.93,0.27,0.71,0.21,0.62
469051779,4,19.65,0,1404.00,0.21,0.57,-0.36,1.07,0.27,0.71,0.21,0.62
469181377,4,20.58,0,1404.00,0.25,-1.37,-0.32,1.25,0.27,0.71,0.21,0.62
469301778,4,19.65,0,1404.00,0.26,0.28,0.12,0.35,0.27,0.71,0.20,0.62
469428280,4,19.65,0,1405.62,4.58,0.19,0.32,0.91,0.27,0.71,0.20,0.62
469551778,4,20.12,0,1405.62,3.23,-0.30,-0.19,1.12,0.27,0.71,0.21,0.62
469677695,4,20.12,0,1405.62,2.26,0.61,-1.06,1.25,0.27,0.71,0.21,0.62
469801778,4,20.12,0,1405.62,1.64,-0.09,-0.53,0.98,0.27,0.71,0.21,0.62
469927686,4,19.65,0,1405.62,1.20,1.22,-0.68,0.99,0.27,0.71,0.21,0.62
470051780,4,19.65,0,1405.62,0.91,-2.03,0.48,0.49,0.27,0.71,0.21,0.62
470177672,4,20.12,0,1405.62,0.67,-0.22,0.41,0.70,0.27,0.71,0.21,0.62
470301777,4,21.05,0,1405.62,0.59,0.07,-0.17,1.60,0.27,0.70,0.21,0.62
470428846,4,19.65,0,1402.12,-8.50,1.03,-0.26,0.31,0.27,0.70,0.21,0.62
470551780,4,20.12,0,1402.12,-5.74,-1.71,0.25,2.04,0.27,0.70,0.21,0.62
470679869,4,20.58,0,1402.12,-3.66,-1.51,0.88,0.81,0.27,0.71,0.21,0.62
470801778,4,20.58,0,1402.12,-2.45,0.44,-0.45,0.86,0.27,0.71,0.21,0.62
470927711,4,19.65,0,1402.12,-1.50,1.15,0.68,1.37,0.27,0.71,0.21,0.62
471051780,4,20.12,0,1402.12,-0.93,-0.73,-1.70,0.74,0.27,0.71,0.21,0.62
471177729,4,20.58,0,1402.12,-0.49,0.07,0.63,1.71,0.27,0.70,0.21,0.62
471301779,4,20.58,0,1402.12,-0.21,1.21,-0.68,0.86,0.27,0.71,0.20,0.62
471427943,4,20.12,0,1404.88,6.81,-2.14,0.59,1.02,0.27,0.71,0.21,0.62
471551778,4,19.65,0,1404.88,4.78,0.81,0.06,0.32,0.27,0.71,0.20,0.62
471677691,4,20.58,0,1404.88,3.22,0.72,-1.16,0.87,0.27,0.71,0.20,0.62
471801777,4,20.12,0,1404.88,2.37,0.88,0.77,2.29,0.27,0.71,0.20,0.62
471927741,4,20.58,0,1404.88,1.61,-1.46,-1.44,0.20,0.27,0.71,0.20,0.62
472051780,4,20.12,0,1404.88,1.25,2.11,0.43,1.85,0.27,0.71,0.20,0.62
472177983,4,20.12,0,1404.88,0.93,-1.95,-0.50,0.55,0.27,0.71,0.20,0.62
472301780,4,20.58,0,1404.88,0.69,0.66,-0.14,0.51,0.27,0.71,0.20,0.62
472429557,4,20.58,0,1402.69,-4.53,0.17,-0.23,1.74,0.27,0.71,0.20,0.62
472551778,4,19.65,0,1402.69,-2.98,-0.41,-0.76,0.40,0.27,0.71,0.20,0.62
472680674,4,20.58,0,1402.69,-1.91,0.42,-0.22,0.65,0.27,0.71,0.20,0.62
472801777,4,19.65,0,1402.69,-1.20,0.30,-0.96,1.26,0.27,0.71,0.20,0.62
472927769,4,20.58,0,1402.69,-0.66,0.40,-0.59,0.66,0.27,0.71,0.20,0.62
473051779,4,20.58,0,1402.69,-0.40,0.38,-1.56,1.32,0.27,0.71,0.20,0.62
473177775,4,19.65,0,1402.69,-0.15,-0.30,0.11,0.17,0.27,0.71,0.20,0.62
473301779,4,21.05,0,1402.69,-0.02,0.21,-0.85,1.54,0.27,0.71,0.20,0.62
473427945,4,20.12,0,1406.44,8.65,0.18,0.89,1.23,0.27,0.71,0.20,0.62
473551777,4,20.12,0,1406.44,6.00,0.23,-2.28,1.00,0.27,0.71,0.20,0.62
473677743,4,20.12,0,1406.44,4.08,0.11,0.02,0.97,0.27,0.71,0.20,0.62
473801780,4,19.65,0,1406.44,2.86,0.43,0.04,0.34,0.27,0.71,0.20,0.62
473927786,4,20.58,0,1406.44,2.00,-0.79,-0.33,1.32,0.27,0.71,0.20,0.62
474051778,4,20.12,0,1406.44,1.52,0.94,-1.13,0.42,0.27,0.71,0.20,0.62
474177758,4,19.65,0,1406.44,1.08,0.35,-2.16,0.59,0.27,0.71,0.20,0.62
474301780,4,20.12,0,1406.44,0.77,0.56,-0.29,1.53,0.28,0.71,0.20,0.62
474427965,4,20.58,0,1405.75,-0.79,-0.66,-1.25,1.15,0.28,0.70,0.20,0.62
474551778,4,20.58,0,1405.75,-0.44,-0.17,0.53,0.79,0.28,0.71,0.20,0.62
474677758,4,20.58,0,1405.75,-0.23,-0.51,-0.33,0.70,0.28,0.71,0.20,0.62
474801779,4,20.58,0,1405.75,-0.07,-0.53,-0.36,1.04,0.28,0.71,0.20,0.62
474927755,4,20.58,0,1405.75,0.06,-0.05,-1.51,0.56,0.27,0.71,0.20,0.62
475051778,4,20.12,0,1405.75,0.16,1.62,-0.05,1.23,0.27,0.71,0.20,0.62
475177766,4,19.65,0,1405.75,0.19,-0.24,-1.39,0.84,0.27,0.71,0.20,0.62
475301779,4,21.05,0,1405.75,0.23,0.91,-0.68,1.59,0.27,0.71,0.20,0.62
475427952,4,20.58,0,1406.38,1.62,0.62,-0.71,1.30,0.27,0.71,0.20,0.62
475551780,4,20.12,0,1406.38,1.17,-0.22,-1.45,1.38,0.27,0.71,0.20,0.62
475677673,4,19.65,0,1406.38,0.92,0.17,-0.26,1.73,0.27,0.71,0.20,0.62
475801778,4,20.58,0,1406.38,0.72,-1.08,-0.94,0.38,0.27,0.71,0.20,0.62
475928568,4,20.58,0,1406.38,0.55,0.00,-0.84,0.88,0.27,0.71,0.20,0.62
476051779,4,20.12,0,1406.38,0.53,1.39,-0.40,1.86,0.27,0.71,0.20,0.62
476179848,4,20.58,0,1406.38,0.40,0.02,0.02,-0.25,0.27,0.71,0.20,0.62
476301778,4,21.05,0,1403.12,-9.75,1.21,0.81,1.71,0.27,0.71,0.20,0.62
476431373,4,20.58,0,1403.12,-6.33,-0.22,-1.32,0.89,0.27,0.71,0.20,0.62
476551776,4,20.58,0,1403.12,-4.25,0.50,-3.03,2.03,0.27,0.71,0.20,0.62
476679359,4,20.58,0,1403.12,-2.63,-1.14,0.45,1.48,0.27,0.71,0.20,0.62
476801776,4,19.65,0,1403.12,-1.76,-0.71,-0.93,0.19,0.27,0.71,0.20,0.62
476927685,4,20.58,0,1403.12,-1.08,-0.96,-1.06,0.85,0.27,0.71,0.20,0.62
477051776,4,19.65,0,1403.12,-0.59,-0.41,-0.83,0.21,0.27,0.71,0.20,0.62
477177719,4,20.12,0,1403.12,-0.33,0.26,-0.18,1.25,0.27,0.71,0.20,0.62
477301778,4,20.58,0,1403.75,1.79,1.99,-0.88,1.08,0.27,0.71,0.20,0.62
477427928,4,20.12,0,1403.75,1.26,-0.87,-0.99,1.68,0.27,0.71,0.20,0.62
477551777,4,20.58,0,1403.75,0.99,-0.47,0.02,1.27,0.27,0.71,0.20,0.62
477678295,4,20.58,0,1403.75,0.79,-1.07,-0.86,0.86,0.27,0.71,0.20,0.62
477801778,4,20.58,0,1403.75,0.63,1.12,0.07,1.83,0.27,0.71,0.20,0.62
477929457,4,20.12,0,1403.75,0.50,-1.09,-1.31,1.70,0.27,0.71,0.20,0.62
478051778,4,20.12,0,1403.75,0.51,-2.32,0.66,1.64,0.27,0.71,0.20,0.62
478180552,4,19.65,0,1403.75,0.34,1.51,0.74,0.10,0.27,0.71,0.20,0.62
478301779,4,20.12,0,1403.94,0.88,1.53,0.03,1.23,0.27,0.71,0.20,0.62
478431504,4,20.58,0,1403.94,0.74,0.65,-2.15,1.25,0.27,0.71,0.20,0.62
478551778,4,21.05,0,1403.94,0.59,-1.41,-0.73,1.13,0.27,0.71,0.20,0.62
478677663,4,20.58,0,1403.94,0.50,1.57,-2.30,1.37,0.27,0.71,0.20,0.62
478801778,4,19.65,0,1403.94,0.39,-0.12,-0.42,0.57,0.27,0.71,0.20,0.62
478927657,4,20.12,0,1403.94,0.40,1.44,-1.18,1.47,0.27,0.71,0.20,0.62
479051775,4,20.58,0,1403.94,0.37,-0.03,-0.87,1.17,0.27,0.71,0.20,0.62
479177647,4,20.58,0,1403.94,0.37,-0.28,0.25,1.20,0.27,0.71,0.20,0.62
479301778,4,20.58,0,1404.31,1.39,0.44,-1.42,1.08,0.27,0.71,0.20,0.62
479428450,4,20.58,0,1404.31,0.97,-0.95,-1.06,0.65,0.27,0.71,0.20,0.62
479551778,4,20.12,0,1404.31,0.80,1.21,-1.08,1.25,0.27,0.71,0.20,0.62
479679276,4,19.65,0,1404.31,0.60,-1.37,0.27,1.11,0.27,0.71,0.20,0.62
479801778,4,20.12,0,1404.31,0.56,1.26,-1.28,1.26,0.27,0.71,0.20,0.62
479928234,4,20.58,0,1404.31,0.48,-0.76,-1.90,0.91,0.27,0.71,0.20,0.62
480051778,4,20.58,0,1404.31,0.43,1.39,0.20,0.86,0.27,0.71,0.20,0.62
480177678,4,20.58,0,1404.31,0.39,-0.75,-1.69,0.68,0.27,0.71,0.20,0.62
480301777,4,20.58,0,1404.81,1.65,1.65,-0.44,1.38,0.27,0.71,0.20,0.62
480427918,4,20.12,0,1404.81,1.22,-1.44,-0.82,1.03,0.28,0.71,0.20,0.62
480551777,4,20.58,0,1404.81,0.94,-1.46,-1.00,1.23,0.28,0.71,0.20,0.62
480677667,4,20.58,0,1404.81,0.73,-0.18,0.54,0.66,0.28,0.71,0.20,0.62
480801776,4,20.12,0,1404.81,0.56,0.96,0.66,1.03,0.28,0.71,0.20,0.62
480927652,4,20.12,0,1404.81,0.57,0.42,-0.90,1.35,0.28,0.71,0.20,0.62
481051780,4,20.12,0,1404.81,0.46,0.00,0.19,0.34,0.28,0.71,0.20,0.62
481177934,4,20.12,0,1404.81,0.41,0.26,-1.06,1.67,0.28,0.71,0.20,0.62
481301778,4,19.65,0,1405.38,1.84,-0.42,0.30,1.17,0.28,0.71,0.20,0.62
481427919,4,20.58,0,1405.38,1.32,1.60,-2.56,1.43,0.28,0.71,0.20,0.62
481551775,4,20.58,0,1405.38,1.04,-1.01,0.65,1.01,0.28,0.71,0.20,0.62
481677656,4,20.12,0,1405.38,0.73,0.48,-0.88,0.27,0.28,0.71,0.20,0.62
481801776,4,20.12,0,1405.38,0.68,0.88,-0.63,2.41,0.28,0.71,0.20,0.62
481927655,4,20.58,0,1405.38,0.54,-1.56,-0.98,-0.04,0.28,0.71,0.20,0.62
482051776,4,20.58,0,1405.38,0.45,1.15,-0.25,1.57,0.28,0.71,0.20,0.62
482177669,4,19.65,0,1405.38,0.37,1.19,0.89,0.17,0.28,0.71,0.20,0.62
482301778,4,20.58,0,1405.94,1.82,0.15,-0.53,1.25,0.28,0.71,0.20,0.62
482427934,4,20.58,0,1405.94,1.24,1.37,0.16,-0.32,0.28,0.71,0.20,0.62
482551775,4,20.58,0,1405.94,0.99,2.22,1.37,1.51,0.28,0.71,0.20,0.62
482677649,4,20.12,0,1405.94,0.81,0.06,-1.47,0.97,0.28,0.71,0.20,0.62
482801767,4,20.12,0,1405.94,0.57,0.00,-0.75,-0.41,0.28,0.71,0.20,0.62
482927681,4,20.58,0,1405.94,0.51,1.53,0.30,1.96,0.28,0.71,0.20,0.62
483051765,4,20.58,0,1405.94,0.52,-0.55,-0.22,0.91,0.28,0.71,0.20,0.62
483177664,4,21.05,0,1405.94,0.39,-0.60,-0.72,0.94,0.28,0.71,0.20,0.62
483301766,4,20.58,0,1405.44,-0.75,-0.75,0.71,1.82,0.28,0.71,0.20,0.62
483427941,4,20.12,0,1405.44,-0.40,-1.21,-1.89,-0.16,0.27,0.71,0.20,0.62
483551764,4,20.58,0,1405.44,-0.24,1.27,-0.98,0.51,0.27,0.71,0.20,0.62
483677694,4,20.58,0,1405.44,-0.01,1.29,-1.00,2.18,0.27,0.71,0.20,0.62
483801764,4,20.58,0,1405.44,0.11,-0.73,-1.41,0.02,0.27,0.71,0.20,0.62
483927656,4,20.58,0,1405.44,0.13,2.08,0.07,0.49,0.27,0.71,0.20,0.62
484051767,4,21.05,0,1405.44,0.23,0.24,0.74,1.85,0.27,0.71,0.20,0.62
484177666,4,20.12,0,1405.44,0.24,0.15,-2.03,-0.50,0.27,0.71,0.20,0.62
484301780,4,20.58,0,1407.62,5.22,1.00,-0.61,1.83,0.28,0.71,0.20,0.62
484427911,4,20.12,0,1407.62,3.60,0.67,-0.55,0.75,0.28,0.71,0.20,0.62
484551779,4,20.58,0,1407.62,2.54,0.93,-0.18,1.49,0.28,0.71,0.20,0.62
484677659,4,20.12,0,1407.62,1.78,0.66,-0.01,0.82,0.28,0.71,0.20,0.62
484801779,4,20.58,0,1407.62,1.34,0.22,-0.04,0.88,0.28,0.71,0.20,0.62
484928859,4,20.12,0,1407.62,1.01,-0.05,0.38,0.76,0.28,0.71,0.20,0.62
485051780,4,20.12,0,1407.62,0.79,1.12,0.07,1.69,0.28,0.71,0.20,0.62
485180085,4,20.58,0,1407.62,0.64,-0.58,-0.84,0.86,0.28,0.71,0.20,0.62
485301779,4,20.12,0,1407.88,1.11,0.53,-0.72,1.59,0.28,0.71,0.20,0.62
485431388,4,20.12,0,1407.88,0.83,-0.28,0.08,-0.15,0.28,0.71,0.20,0.62
485551778,4,19.65,0,1407.88,0.66,2.49,-0.44,1.03,0.28,0.71,0.20,0.62
485680429,4,20.12,0,1407.88,0.54,-0.35,-0.57,1.65,0.28,0.71,0.20,0.62
485801779,4,20.12,0,1407.88,0.52,1.10,-1.22,1.14,0.28,0.71,0.21,0.62
485927658,4,20.12,0,1407.88,0.41,-0.53,0.29,1.02,0.28,0.71,0.21,0.62
486051779,4,20.58,0,1407.88,0.37,1.69,0.62,0.41,0.27,0.71,0.20,0.62
486177675,4,21.05,0,1407.06,-2.15,0.89,-0.69,0.82,0.27,0.71,0.20,0.62
486301777,4,20.12,0,1407.06,-1.40,0.13,-0.14,1.18,0.27,0.71,0.20,0.62
486427937,4,20.12,0,1407.06,-0.75,0.46,-0.24,1.60,0.27,0.71,0.20,0.62
486551780,4,21.05,0,1407.06,-0.43,-1.24,-0.71,0.46,0.27,0.71,0.21,0.62
486678334,4,20.12,0,1407.06,-0.21,0.54,-0.68,0.56,0.27,0.71,0.21,0.62
486801778,4,20.12,0,1407.06,-0.01,-0.33,-0.99,1.24,0.27,0.71,0.21,0.62
486929491,4,20.58,0,1407.06,0.09,0.57,-1.04,0.98,0.27,0.71,0.20,0.62
487051780,4,19.65,0,1407.06,0.19,0.26,-1.46,2.26,0.27,0.71,0.21,0.62
487180586,4,20.58,0,1404.94,-6.17,0.16,-1.51,-0.33,0.27,0.71,0.21,0.62
487301777,4,21.05,0,1404.94,-4.16,1.57,0.51,1.65,0.27,0.71,0.21,0.62
487431525,4,20.12,0,1404.94,-2.60,1.85,-1.66,1.72,0.27,0.71,0.21,0.62
487551780,4,20.12,0,1404.94,-1.71,0.16,-1.45,0.74,0.27,0.71,0.21,0.62
487677697,4,19.65,0,1404.94,-1.04,0.73,1.02,1.26,0.27,0.71,0.21,0.62
487801778,4,20.58,0,1404.94,-0.56,1.78,-0.86,1.68,0.27,0.71,0.21,0.62
487927703,4,20.58,0,1404.94,-0.30,-0.52,-0.04,-0.02,0.27,0.71,0.21,0.62
488051779,4,20.58,0,1404.94,-0.09,0.91,-0.46,1.87,0.27,0.71,0.21,0.62
488177714,4,20.58,0,1404.88,-0.09,-1.31,-2.10,1.27,0.27,0.71,0.21,0.62
488301780,4,21.05,0,1404.88,-0.01,0.46,-0.96,0.03,0.27,0.71,0.21,0.62
488428307,4,20.12,0,1404.88,0.16,1.09,0.00,2.49,0.27,0.71,0.21,0.62
488551779,4,20.58,0,1404.88,0.23,-0.10,-0.06,0.51,0.27,0.71,0.21,0.62
488679295,4,21.05,0,1404.88,0.21,0.02,-0.68,1.59,0.27,0.71,0.21,0.62
488801778,4,20.12,0,1404.88,0.27,0.33,-0.27,0.23,0.27,0.71,0.21,0.62
488930359,4,20.12,0,1404.88,0.30,0.88,-2.25,2.09,0.27,0.71,0.21,0.62
489051778,4,20.58,0,1404.88,0.30,-0.84,-0.96,0.00,0.27,0.71,0.21,0.62
489181248,4,20.12,0,1406.81,5.62,1.50,-0.29,2.04,0.27,0.70,0.21,0.62
489301780,4,20.12,0,1406.81,3.95,-0.67,-0.65,0.92,0.27,0.71,0.21,0.62
489427923,4,20.58,0,1406.81,2.74,-0.12,-0.72,0.67,0.27,0.71,0.21,0.62
489551780,4,19.65,0,1406.81,1.95,0.04,0.05,1.30,0.27,0.71,0.21,0.62
489677682,4,20.58,0,1406.81,1.48,0.92,-1.20,1.43,0.27,0.71,0.21,0.62
489801778,4,20.12,0,1406.81,1.06,-0.63,-0.97,0.79,0.27,0.71,0.21,0.62
489927687,4,20.58,0,1406.81,0.80,1.22,-0.24,0.91,0.27,0.71,0.21,0.62
490051777,4,20.12,0,1406.81,0.69,-1.18,0.47,1.81,0.28,0.71,0.21,0.62
490177955,4,19.65,0,1404.06,-6.74,-0.13,-0.96,0.16,0.28,0.71,0.21,0.62
490301779,4,20.58,0,1404.06,-4.53,0.45,0.67,1.63,0.28,0.71,0.21,0.62
490427959,4,20.12,0,1404.06,-2.82,-0.28,0.19,2.07,0.28,0.71,0.21,0.62
490551780,4,20.58,0,1404.06,-1.80,-0.16,-1.31,0.24,0.28,0.71,0.21,0.62
490677759,4,20.58,0,1404.06,-1.18,1.15,0.53,0.67,0.28,0.71,0.21,0.62
490801780,4,20.58,0,1404.06,-0.66,0.49,-0.48,0.79,0.28,0.71,0.21,0.62
490927769,4,20.12,0,1404.06,-0.36,1.25,-0.83,0.97,0.28,0.71,0.21,0.62
491051779,4,20.58,0,1404.06,-0.08,-0.75,-1.33,2.41,0.28,0.71,0.21,0.62
491177744,4,21.05,0,1405.12,2.80,0.00,-1.34,-0.05,0.27,0.71,0.21,0.62
491301778,4,20.58,0,1405.12,1.99,0.53,-1.45,1.03,0.27,0.71,0.21,0.62
491427972,4,20.58,0,1405.12,1.45,1.72,-0.08,1.53,0.27,0.71,0.21,0.62
491551780,4,21.05,0,1405.12,1.13,-0.88,-1.18,0.00,0.27,0.71,0.21,0.62
491677756,4,20.58,0,1405.12,0.80,-0.50,-0.83,0.95,0.27,0.71,0.21,0.62
491801780,4,20.58,0,1405.12,0.66,2.34,0.18,0.57,0.28,0.71,0.21,0.62
491927764,4,19.65,0,1405.12,0.59,0.44,0.03,1.31,0.28,0.71,0.21,0.62
492051777,4,20.58,0,1405.12,0.45,-0.03,-0.08,1.30,0.28,0.71,0.21,0.62
492177751,4,20.12,0,1406.06,2.86,0.07,0.38,1.13,0.28,0.71,0.21,0.62
492301776,4,20.58,0,1406.06,1.99,-0.43,-2.15,0.77,0.27,0.71,0.21,0.62
492427948,4,20.12,0,1406.06,1.43,1.69,-1.19,1.08,0.27,0.71,0.21,0.62
492551780,4,20.58,0,1406.06,1.11,0.05,-0.85,1.38,0.27,0.71,0.21,0.62
492677742,4,20.58,0,1406.06,0.82,0.46,-0.76,0.69,0.27,0.71,0.21,0.62
492801778,4,20.58,0,1406.06,0.69,0.03,-0.28,1.99,0.27,0.71,0.21,0.62
492927738,4,20.12,0,1406.06,0.58,-0.18,-0.64,0.66,0.27,0.71,0.21,0.62
493051778,4,20.58,0,1406.06,0.46,0.48,-1.31,1.19,0.27,0.71,0.21,0.62
493177780,4,20.58,0,1407.19,3.12,-0.13,0.90,1.43,0.27,0.71,0.22,0.62
493301780,4,21.05,0,1407.19,2.20,0.03,-1.17,-0.18,0.27,0.71,0.21,0.62
493427962,4,20.12,0,1407.19,1.53,1.09,0.60,1.17,0.27,0.71,0.21,0.62
493551779,4,20.12,0,1407.19,1.19,-0.80,0.72,2.05,0.28,0.71,0.21,0.62
493677750,4,20.12,0,1407.19,0.90,-0.44,-0.46,0.27,0.28,0.71,0.21,0.62
493801778,4,20.58,0,1407.19,0.72,0.92,0.59,1.45,0.27,0.71,0.21,0.62
493928669,4,20.12,0,1407.19,0.62,-1.01,-0.99,1.59,0.27,0.71,0.21,0.62
494051780,4,20.58,0,1407.19,0.54,-0.16,-1.91,0.13,0.27,0.71,0.21,0.62
494179849,4,21.05,0,1405.25,-3.92,-0.70,-0.61,1.53,0.27,0.71,0.21,0.62
494301779,4,21.05,0,1405.25,-2.59,0.75,-1.58,0.96,0.27,0.71,0.21,0.62
494431257,4,20.12,0,1405.25,-1.62,-0.05,-0.92,0.75,0.27,0.71,0.21,0.62
494551779,4,20.12,0,1405.25,-1.00,0.26,0.40,0.96,0.27,0.71,0.21,0.62
494681308,4,20.58,0,1405.25,-0.54,0.11,-1.18,0.99,0.27,0.71,0.21,0.62
494801778,4,20.58,0,1405.25,-0.25,-0.19,0.28,1.11,0.27,0.71,0.21,0.62
494927678,4,21.05,0,1405.25,-0.04,-0.05,-0.86,1.16,0.28,0.71,0.21,0.62
495051777,4,20.58,0,1405.25,0.09,-0.68,0.41,1.48,0.28,0.71,0.21,0.62
495177656,4,20.12,0,1406.19,2.19,-0.31,-0.16,0.63,0.28,0.71,0.21,0.62
495301778,4,20.58,0,1406.19,1.61,1.62,-1.10,0.94,0.27,0.71,0.21,0.62
495427932,4,20.58,0,1406.19,1.21,0.60,-2.21,1.17,0.27,0.70,0.21,0.62
495551779,4,20.58,0,1406.19,0.90,0.35,-0.41,0.87,0.27,0.70,0.21,0.62
495678005,4,20.58,0,1406.19,0.76,1.29,0.25,1.44,0.27,0.71,0.21,0.62
495801777,4,20.58,0,1406.19,0.52,-1.23,-0.48,-0.46,0.27,0.71,0.22,0.62
495929214,4,21.05,0,1406.19,0.53,1.62,0.34,2.82,0.27,0.71,0.21,0.62
496051777,4,20.58,0,1406.19,0.45,-2.49,-0.79,0.04,0.27,0.71,0.21,0.62
496180380,4,20.12,0,1408.81,6.02,1.74,-0.23,1.84,0.27,0.71,0.21,0.62
496301778,4,20.12,0,1408.81,4.21,0.23,-0.16,-0.14,0.27,0.71,0.21,0.62
496431496,4,20.58,0,1408.81,2.89,1.09,0.33,1.38,0.27,0.71,0.21,0.62
496551778,4,20.58,0,1408.81,2.12,0.92,-0.95,0.75,0.27,0.71,0.21,0.62
496677664,4,20.12,0,1408.81,1.49,-1.96,-1.42,0.12,0.27,0.71,0.21,0.62
496801776,4,20.58,0,1408.81,1.08,2.39,-0.29,1.80,0.27,0.71,0.21,0.62
496927674,4,20.58,0,1408.81,0.90,-1.44,-1.41,1.34,0.28,0.71,0.21,0.62
497051779,4,19.65,0,1406.81,-5.54,-0.01,-1.06,0.46,0.27,0.71,0.21,0.62
497177698,4,20.58,0,1406.81,-3.54,0.08,-0.66,1.00,0.28,0.71,0.21,0.62
497301777,4,21.05,0,1406.81,-2.31,-1.28,-0.82,1.03,0.28,0.71,0.21,0.62
497427980,4,20.58,0,1406.81,-1.42,-0.70,-0.56,1.31,0.28,0.71,0.21,0.62
497551777,4,20.58,0,1406.81,-0.85,0.18,0.33,1.54,0.28,0.71,0.21,0.62
497678937,4,20.58,0,1406.81,-0.49,0.57,0.50,-0.06,0.28,0.71,0.21,0.62
497801775,4,20.58,0,1406.81,-0.22,2.58,-0.57,2.12,0.28,0.70,0.21,0.62
497928426,4,20.58,0,1406.81,0.04,-0.43,-1.25,0.84,0.28,0.71,0.21,0.61
498051779,4,21.05,0,1406.19,-1.80,-1.14,-0.93,0.21,0.28,0.71,0.21,0.61
498177686,4,21.05,0,1406.19,-1.03,2.71,0.20,2.51,0.28,0.70,0.21,0.62
498301778,4,21.05,0,1406.19,-0.51,-1.49,-1.95,0.99,0.28,0.71,0.21,0.62
498427926,4,20.12,0,1406.19,-0.34,-0.25,-0.95,0.36,0.28,0.71,0.21,0.62
498551777,4,20.12,0,1406.19,-0.09,1.64,1.09,1.47,0.28,0.71,0.21,0.62
498677662,4,20.12,0,1406.19,0.08,-0.01,-1.98,1.23,0.28,0.71,0.21,0.62
498801777,4,20.58,0,1406.19,0.11,-0.42,-0.17,0.71,0.28,0.71,0.21,0.62
498927669,4,21.05,0,1406.19,0.25,0.31,-0.93,1.62,0.27,0.71,0.21,0.62
499051777,4,20.58,0,1404.81,-3.68,-0.23,-1.66,-0.24,0.27,0.71,0.22,0.62
499177675,4,21.05,0,1404.81,-2.37,2.58,-0.07,1.22,0.27,0.70,0.22,0.62
499301776,4,20.58,0,1404.81,-1.39,0.54,-1.57,0.89,0.28,0.70,0.22,0.62
499428185,4,19.65,0,1404.81,-0.92,-2.37,-0.43,0.32,0.28,0.71,0.22,0.62
499551777,4,20.12,0,1404.81,-0.51,1.54,0.33,1.42,0.28,0.70,0.21,0.62
499677677,4,21.05,0,1404.81,-0.15,-1.52,-1.81,0.30,0.28,0.71,0.21,0.62
499801777,4,21.05,0,1404.81,-0.04,0.11,-0.47,1.26,0.28,0.71,0.21,0.62
499927654,4,20.12,0,1404.81,0.08,-0.60,-0.95,1.00,0.28,0.71,0.21,0.62
500051778,4,20.58,0,1405.38,1.73,0.77,-0.33,0.63,0.27,0.71,0.21,0.62
500181273,4,21.05,0,1405.38,1.24,-1.18,-0.43,0.99,0.27,0.71,0.21,0.62
500301778,4,21.05,0,1405.38,0.98,2.09,-0.91,0.78,0.27,0.71,0.21,0.62
500427925,4,20.12,0,1405.38,0.74,-0.81,-0.69,0.54,0.27,0.71,0.21,0.62
500551779,4,20.12,0,1405.38,0.56,-0.20,0.49,-0.10,0.27,0.71,0.22,0.62
500677662,4,21.05,0,1405.38,0.52,1.43,-0.47,1.53,0.27,0.71,0.21,0.62
500801776,4,19.65,0,1405.38,0.54,-0.26,-2.18,1.78,0.27,0.71,0.21,0.62
500927654,4,20.12,0,1405.38,0.37,0.34,-0.65,-0.07,0.27,0.71,0.21,0.62
501051764,4,20.58,0,1408.88,9.69,1.80,0.34,1.81,0.27,0.71,0.21,0.62
501178054,4,21.05,0,1408.88,6.52,-1.69,-2.21,0.72,0.27,0.71,0.21,0.62
501301766,4,20.12,0,1408.88,4.54,0.73,-0.73,1.60,0.27,0.70,0.21,0.62
501427935,4,19.65,0,1408.88,3.20,-0.36,1.53,1.44,0.28,0.70,0.21,0.62
501551768,4,21.05,0,1408.88,2.26,-2.05,-0.01,0.51,0.28,0.71,0.21,0.62
501677676,4,20.58,0,1408.88,1.61,0.39,0.70,1.85,0.28,0.70,0.21,0.62
501801765,4,20.58,0,1408.88,1.24,-0.51,-0.91,0.17,0.28,0.70,0.22,0.62
501927667,4,20.58,0,1408.88,0.90,-0.70,-1.15,2.33,0.28,0.70,0.21,0.62
502051765,4,21.05,0,1407.81,-1.95,-0.23,0.20,1.65,0.28,0.70,0.21,0.62
502177673,4,20.58,0,1407.81,-1.14,-0.97,-1.14,0.65,0.28,0.71,0.21,0.62
502301778,4,20.12,0,1407.81,-0.70,1.53,-2.15,0.58,0.28,0.71,0.21,0.61
502427932,4,21.52,0,1407.81,-0.39,-1.00,-0.22,1.43,0.28,0.71,0.22,0.61
502551780,4,20.58,0,1407.81,-0.16,0.47,-0.44,0.47,0.28,0.71,0.21,0.61
502677669,4,20.12,0,1407.81,0.04,-0.75,-0.95,1.90,0.28,0.71,0.21,0.62
502801778,4,21.05,0,1407.81,0.17,1.20,-0.93,2.18,0.28,0.71,0.21,0.62
502928120,4,20.58,0,1407.81,0.23,-1.02,-1.73,0.37,0.28,0.71,0.22,0.61
503051778,4,20.12,0,1407.50,-0.59,0.78,-1.15,1.61,0.28,0.71,0.22,0.62
503179343,4,20.12,0,1407.50,-0.21,1.35,-0.37,2.01,0.28,0.71,0.21,0.62
503301780,4,20.12,0,1407.50,-0.04,-1.61,-1.36,0.60,0.28,0.71,0.22,0.62
503430655,4,20.58,0,1407.50,0.07,0.34,0.44,1.47,0.28,0.71,0.21,0.62
503551780,4,20.58,0,1407.50,0.19,0.58,0.42,0.90,0.28,0.71,0.22,0.62
503681251,4,20.58,0,1407.50,0.17,0.81,0.93,1.09,0.28,0.71,0.22,0.62
503801777,4,20.12,0,1407.50,0.30,0.73,0.99,2.29,0.28,0.70,0.21,0.62
503927674,4,20.12,0,1407.50,0.30,0.80,-1.12,-0.03,0.28,0.71,0.21,0.61
504051779,4,21.05,0,1407.94,1.32,0.92,0.46,1.81,0.28,0.71,0.21,0.62
504177654,4,20.12,0,1407.94,1.00,0.04,-1.50,0.38,0.28,0.71,0.22,0.61
504301778,4,21.05,0,1407.94,0.75,1.27,-1.13,1.83,0.28,0.70,0.22,0.62
504427906,4,20.12,0,1407.94,0.65,0.28,0.16,1.07,0.28,0.70,0.22,0.62
504551780,4,20.58,0,1407.94,0.55,0.55,-0.09,1.04,0.28,0.70,0.22,0.61
504677764,4,20.12,0,1407.94,0.46,1.32,-0.21,0.87,0.28,0.70,0.22,0.62
504801778,4,20.58,0,1407.94,0.45,1.57,-1.49,1.24,0.28,0.70,0.22,0.62
504928940,4,20.58,0,1407.94,0.41,-1.15,-2.18,1.33,0.28,0.70,0.22,0.62
505051780,4,20.58,0,1408.25,1.09,0.83,0.40,0.45,0.28,0.70,0.22,0.62
505180059,4,20.58,0,1408.25,0.86,1.25,-0.99,1.78,0.28,0.70,0.22,0.62
505301779,4,21.05,0,1408.25,0.70,-0.29,-0.89,0.62,0.28,0.70,0.22,0.61
505431551,4,21.05,0,1408.25,0.58,-1.27,-2.11,1.01,0.28,0.70,0.22,0.61
505551779,4,20.58,0,1408.25,0.51,-0.22,-2.56,1.32,0.28,0.70,0.22,0.61
505677692,4,20.12,0,1408.25,0.46,0.52,1.07,1.04,0.28,0.70,0.22,0.61
505801778,4,20.58,0,1408.25,0.44,1.12,0.44,0.72,0.27,0.71,0.22,0.61
505927691,4,20.58,0,1408.25,0.31,0.95,0.29,0.33,0.27,0.71,0.22,0.61
506051778,4,20.58,0,1406.81,-2.78,1.03,-0.52,3.39,0.27,0.70,0.22,0.62
506177721,4,20.58,0,1406.81,-1.50,-2.26,-0.09,0.47,0.27,0.71,0.22,0.61
506301779,4,21.05,0,1406.81,-1.42,5.21,-0.21,-6.91,0.27,0.71,0.22,0.62
506427942,4,20.58,0,1406.81,-0.81,4.16,0.82,6.99,0.27,0.70,0.22,0.63
506551778,4,20.12,0,1406.81,0.24,-4.69,-5.16,4.14,0.27,0.70,0.22,0.62
506678757,4,20.58,0,1406.81,0.05,-4.93,-4.11,-3.85,0.28,0.70,0.23,0.61
506801779,4,20.58,0,1406.81,-0.10,4.14,2.84,3.19,0.28,0.70,0.23,0.61
506929838,4,21.05,0,1409.62,9.01,0.57,0.69,-0.28,0.28,0.70,0.22,0.61
507051778,4,20.12,0,1409.62,6.23,-4.21,-3.80,-0.49,0.28,0.71,0.22,0.61
507177681,4,21.05,0,1409.62,4.10,0.31,-0.42,1.66,0.28,0.70,0.22,0.62
507301779,4,21.05,0,1409.62,3.15,3.14,0.39,2.91,0.28,0.70,0.22,0.62
507427947,4,21.05,0,1409.62,2.23,-1.65,-2.50,0.74,0.27,0.71,0.22,0.62
507551779,4,20.58,0,1409.62,1.49,1.33,-0.77,-0.56,0.27,0.71,0.22,0.62
507677686,4,20.12,0,1409.62,1.15,2.94,-0.07,1.55,0.27,0.70,0.22,0.62
507801780,4,21.05,0,1409.62,0.91,-0.25,-1.32,1.84,0.27,0.70,0.22,0.62
507927697,4,21.05,0,1408.69,-2.15,-0.77,-0.75,0.13,0.27,0.70,0.22,0.62
508051777,4,20.58,0,1408.69,-1.34,0.51,-0.14,0.63,0.27,0.70,0.22,0.62
508177784,4,21.05,0,1408.69,-0.79,0.28,-1.01,1.97,0.27,0.70,0.22,0.62
508301780,4,20.12,0,1408.69,-0.37,-0.29,-0.88,1.48,0.27,0.70,0.22,0.62
508428213,4,20.12,0,1408.69,-0.14,0.20,-0.38,1.83,0.27,0.71,0.22,0.62
508551779,4,21.05,0,1408.69,-0.00,1.22,-0.50,0.31,0.27,0.71,0.22,0.62
508677756,4,20.12,0,1408.69,0.07,0.81,-0.41,1.08,0.27,0.70,0.22,0.62
508801780,4,20.12,0,1408.69,0.19,-0.03,-0.12,1.77,0.27,0.70,0.22,0.62
508927731,4,21.05,0,1411.00,6.79,-0.91,-0.35,0.56,0.27,0.70,0.22,0.62
509051778,4,20.58,0,1411.00,4.74,0.45,-0.26,1.43,0.27,0.70,0.22,0.62
509177803,4,21.05,0,1411.00,3.29,0.71,-1.19,0.86,0.27,0.71,0.22,0.62
509301778,4,21.05,0,1411.00,2.32,0.40,-0.07,0.82,0.27,0.71,0.22,0.62
509427941,4,21.05,0,1411.00,1.68,0.50,0.44,1.50,0.27,0.71,0.22,0.62
509551778,4,20.58,0,1411.00,1.24,-1.74,-1.04,0.81,0.27,0.71,0.22,0.62
509677753,4,21.05,0,1411.00,0.96,1.08,0.70,1.97,0.27,0.71,0.22,0.62
509801780,4,21.05,0,1411.00,0.82,-1.02,-0.88,1.15,0.27,0.71,0.22,0.62
509927769,4,20.58,0,1406.75,-11.06,-0.28,-0.36,1.01,0.27,0.71,0.22,0.62
510051779,4,20.58,0,1406.75,-7.38,2.23,-0.36,0.88,0.27,0.71,0.21,0.62
510178491,4,21.05,0,1406.75,-4.82,-1.92,-1.77,0.49,0.27,0.71,0.22,0.62
510301778,4,20.58,0,1406.75,-3.19,1.97,-1.06,1.54,0.27,0.71,0.21,0.62
510427959,4,20.12,0,1406.75,-1.98,-1.59,-1.74,0.72,0.27,0.71,0.22,0.62
510551778,4,20.58,0,1406.75,-1.28,0.40,-0.82,0.84,0.27,0.71,0.22,0.62
510677775,4,20.58,0,1406.75,-0.68,1.27,-1.08,1.39,0.27,0.71,0.22,0.62
510801777,4,21.05,0,1406.75,-0.39,-0.57,-1.40,0.73,0.27,0.71,0.22,0.62
510927749,4,21.05,0,1409.06,6.01,1.07,0.25,1.02,0.27,0.71,0.22,0.62
511051778,4,21.05,0,1409.06,4.23,1.00,1.72,0.36,0.27,0.71,0.22,0.62
511177730,4,20.12,0,1409.06,2.88,-1.58,-0.26,0.02,0.27,0.71,0.22,0.62
511301780,4,20.12,0,1409.06,2.10,2.29,0.18,1.84,0.27,0.71,0.22,0.62
511427952,4,20.12,0,1409.06,1.53,-1.23,-0.65,0.92,0.27,0.71,0.22,0.62
511551778,4,20.12,0,1409.06,1.12,-0.49,0.07,0.57,0.27,0.71,0.22,0.62
511677753,4,20.58,0,1409.06,0.91,1.00,-0.64,0.95,0.27,0.71,0.22,0.62
511801779,4,20.58,0,1409.06,0.71,-0.88,-1.53,1.40,0.27,0.71,0.22,0.62
511928467,4,20.58,0,1410.56,4.44,1.09,-0.85,0.97,0.27,0.71,0.22,0.62
512051777,4,20.58,0,1410.56,3.17,1.01,-1.20,1.43,0.27,0.71,0.22,0.62
512179552,4,20.58,0,1410.56,2.19,0.20,-1.66,1.05,0.27,0.71,0.22,0.62
512301778,4,21.05,0,1410.56,1.64,-0.55,-1.14,1.45,0.27,0.71,0.22,0.62
512430803,4,20.12,0,1410.56,1.20,-0.14,-0.35,0.84,0.27,0.71,0.22,0.62
512551779,4,20.12,0,1410.56,0.92,1.02,-0.42,0.87,0.27,0.71,0.22,0.62
512681271,4,20.12,0,1410.56,0.72,0.80,-0.86,0.64,0.27,0.71,0.22,0.62
512801779,4,20.58,0,1410.56,0.59,0.29,-1.51,0.59,0.27,0.71,0.22,0.62
512927699,4,21.05,0,1410.00,-0.86,2.72,-0.12,1.98,0.27,0.71,0.22,0.62
513051778,4,20.58,0,1410.00,-0.50,-0.20,-0.04,0.51,0.27,0.71,0.22,0.62
513177696,4,21.05,0,1410.00,-0.22,1.32,0.66,1.52,0.27,0.71,0.22,0.62
513301778,4,21.05,0,1410.00,-0.01,-0.96,0.23,0.75,0.27,0.71,0.22,0.62
513427920,4,20.12,0,1410.00,0.09,-0.05,-0.23,0.77,0.27,0.71,0.22,0.62
513551777,4,19.18,0,1410.00,0.18,0.91,-0.44,1.04,0.27,0.71,0.22,0.62
513677812,4,21.05,0,1410.00,0.26,-1.30,-2.30,1.69,0.27,0.70,0.22,0.62
513801778,4,21.05,0,1410.00,0.32,-1.86,-0.21,0.46,0.27,0.71,0.22,0.62
513928967,4,20.58,0,1408.56,-3.08,0.25,-0.09,1.00,0.27,0.71,0.22,0.62
514051778,4,20.58,0,1408.56,-2.01,0.55,-0.32,0.85,0.27,0.71,0.22,0.62
514180231,4,20.58,0,1408.56,-1.18,-1.11,-1.12,0.71,0.27,0.71,0.22,0.62
514301777,4,20.12,0,1408.56,-0.70,1.36,-0.68,1.53,0.27,0.71,0.22,0.62
514431572,4,20.58,0,1408.56,-0.35,1.79,0.20,0.43,0.27,0.71,0.22,0.62
514551778,4,21.05,0,1408.56,-0.16,0.15,-0.61,1.15,0.27,0.71,0.22,0.62
514677668,4,20.58,0,1408.56,0.03,1.00,-0.92,1.36,0.27,0.70,0.22,0.62
514801778,4,21.05,0,1408.56,0.17,-1.10,-1.01,1.46,0.27,0.70,0.22,0.62
514927667,4,21.05,0,1409.19,1.64,1.03,-0.38,0.69,0.27,0.71,0.22,0.62
515051778,4,20.58,0,1409.19,1.22,-0.15,-0.47,0.73,0.27,0.71,0.22,0.62
515177656,4,20.12,0,1409.19,0.92,1.13,-0.88,1.59,0.27,0.71,0.22,0.62
515301778,4,21.05,0,1409.19,0.76,0.12,-0.85,1.44,0.27,0.71,0.22,0.62
515427902,4,20.12,0,1409.19,0.62,0.23,-0.87,0.62,0.27,0.71,0.22,0.62
515551776,4,21.05,0,1409.19,0.54,1.14,-0.57,1.33,0.27,0.71,0.22,0.62
515678753,4,20.58,0,1409.19,0.48,0.74,-0.92,1.50,0.27,0.71,0.22,0.62
515801777,4,20.12,0,1409.19,0.44,0.10,-1.07,1.69,0.27,0.71,0.22,0.62
515929840,4,21.05,0,1408.50,-1.12,-0.08,-1.29,0.27,0.27,0.71,0.22,0.62
516051774,4,20.12,0,1408.50,-0.65,1.12,0.86,1.71,0.27,0.71,0.22,0.62
516181127,4,20.58,0,1408.50,-0.33,-1.68,-0.27,0.84,0.27,0.70,0.22,0.62
516301777,4,20.12,0,1408.50,-0.11,1.69,-0.45,2.01,0.27,0.70,0.22,0.62
516427932,4,20.58,0,1408.50,0.09,-2.67,-0.83,0.88,0.27,0.70,0.22,0.62
516551778,4,21.05,0,1408.50,0.13,-0.72,-2.60,0.54,0.27,0.70,0.22,0.62
516677673,4,21.05,0,1408.50,0.23,0.78,-1.01,1.01,0.27,0.70,0.22,0.62
516801776,4,20.58,0,1408.50,0.23,0.30,-1.15,0.69,0.27,0.71,0.22,0.62
516927664,4,21.05,0,1410.56,4.72,0.15,-1.54,2.04,0.27,0.71,0.22,0.62
517051777,4,20.12,0,1410.56,3.33,-0.83,-1.21,0.51,0.27,0.71,0.22,0.62
517177721,4,20.12,0,1410.56,2.31,0.77,-1.43,1.37,0.27,0.71,0.22,0.62
517301777,4,20.58,0,1410.56,1.72,0.17,-1.04,2.12,0.27,0.70,0.22,0.62
517428803,4,21.05,0,1410.56,1.24,-0.82,-0.65,0.48,0.27,0.70,0.22,0.62
517551778,4,21.05,0,1410.56,0.97,0.00,-0.98,1.39,0.27,0.70,0.22,0.62
517677672,4,21.05,0,1410.56,0.79,0.04,-1.16,1.21,0.27,0.71,0.22,0.62
517801775,4,20.58,0,1410.56,0.64,1.08,-1.40,1.22,0.27,0.71,0.22,0.62
517927671,4,20.12,0,1410.56,0.56,0.49,-0.55,1.12,0.27,0.71,0.22,0.62
518051779,4,20.58,0,1410.56,0.47,1.02,-1.03,0.62,0.27,0.71,0.22,0.62
518177653,4,20.12,0,1410.56,0.42,1.84,-0.65,1.92,0.27,0.71,0.22,0.62
518301776,4,21.05,0,1410.56,0.41,-0.70,-1.53,1.51,0.27,0.71,0.22,0.62
518427916,4,20.58,0,1410.56,0.38,1.07,-1.19,0.58,0.27,0.71,0.22,0.62
518551775,4,20.58,0,1410.56,0.37,0.01,-1.09,1.39,0.27,0.71,0.22,0.62
518677665,4,20.58,0,1410.56,0.38,-0.53,-0.57,1.28,0.27,0.71,0.22,0.62
518801778,4,20.58,0,1411.88,4.18,0.22,-0.92,0.69,0.27,0.71,0.22,0.62
518927680,4,21.05,0,1411.88,2.92,1.04,-0.29,0.73,0.27,0.71,0.22,0.62
519051765,4,20.58,0,1411.88,2.09,0.72,-0.82,1.34,0.27,0.71,0.22,0.62
519178390,4,20.12,0,1411.88,1.52,-0.88,-1.14,1.11,0.27,0.71,0.22,0.62
519301766,4,20.12,0,1411.88,1.13,1.30,-0.71,0.55,0.27,0.70,0.22,0.62
519428115,4,20.58,0,1411.88,0.87,0.05,-0.67,1.14,0.27,0.70,0.22,0.62
519551766,4,21.05,0,1411.88,0.71,1.04,-1.25,1.06,0.27,0.70,0.22,0.62
519677682,4,20.58,0,1411.88,0.57,0.64,-0.86,1.09,0.27,0.70,0.22,0.62
519801765,4,20.12,0,1410.56,-3.14,0.20,0.19,2.22,0.27,0.70,0.22,0.62
519927691,4,20.58,0,1410.56,-1.98,-1.40,-1.41,-0.04,0.27,0.70,0.22,0.62
520051765,4,21.05,0,1410.56,-1.28,0.91,0.44,1.65,0.27,0.70,0.22,0.62
520177693,4,21.05,0,1410.56,-0.71,-0.89,0.16,1.89,0.27,0.70,0.22,0.62
520301780,4,19.65,0,1410.56,-0.38,-0.33,-2.03,0.19,0.27,0.70,0.22,0.62
520427931,4,20.12,0,1410.56,-0.13,1.59,-0.14,1.74,0.27,0.70,0.22,0.62
520551779,4,21.05,0,1410.56,0.04,-1.06,-0.89,0.67,0.27,0.70,0.22,0.62
520677670,4,21.05,0,1410.56,0.15,1.83,0.13,1.11,0.27,0.70,0.22,0.62
520801778,4,21.05,0,1413.00,6.89,0.17,0.00,0.88,0.27,0.70,0.22,0.62
520928212,4,21.05,0,1413.00,4.68,1.46,-0.59,1.21,0.27,0.70,0.22,0.62
521051778,4,21.05,0,1413.00,3.29,0.07,0.48,1.00,0.27,0.70,0.22,0.62
521179466,4,21.05,0,1413.00,2.30,0.59,0.32,1.66,0.27,0.70,0.22,0.62
521301781,4,21.05,0,1413.00,1.77,0.37,-0.49,0.99,0.27,0.70,0.22,0.62
521430835,4,20.58,0,1413.00,1.22,-1.43,-0.90,0.84,0.27,0.70,0.22,0.62
521551776,4,21.05,0,1413.00,0.95,0.73,-1.17,1.28,0.27,0.70,0.22,0.62
521681254,4,20.12,0,1413.00,0.76,-0.43,-0.53,0.81,0.27,0.70,0.22,0.62
521801777,4,20.12,0,1412.38,-1.07,1.61,0.17,0.54,0.27,0.70,0.22,0.62
521927695,4,21.05,0,1412.38,-0.53,-0.20,-1.29,1.10,0.27,0.70,0.22,0.62
522051781,4,20.58,0,1412.38,-0.27,-0.80,-1.91,0.52,0.27,0.70,0.22,0.62
522177708,4,20.58,0,1412.38,-0.07,0.81,0.13,1.82,0.27,0.70,0.22,0.62
522301779,4,20.58,0,1412.38,0.07,-0.11,-0.93,0.44,0.27,0.70,0.22,0.62
522427924,4,21.05,0,1412.38,0.16,-0.66,-0.63,1.08,0.27,0.70,0.22,0.62
522551780,4,21.05,0,1412.38,0.26,0.62,-0.56,1.72,0.27,0.70,0.22,0.62
522677842,4,20.12,0,1412.38,0.26,-1.01,-1.46,-0.05,0.27,0.71,0.22,0.62
522801778,4,20.12,0,1412.38,0.23,0.76,-0.42,1.47,0.27,0.70,0.22,0.62
522928936,4,21.05,0,1412.38,0.34,-0.33,-0.62,2.21,0.27,0.70,0.22,0.62
523051777,4,21.05,0,1412.38,0.31,-1.20,-1.09,0.58,0.27,0.71,0.22,0.62
523180211,4,20.58,0,1412.38,0.33,1.41,-0.35,1.46,0.27,0.70,0.22,0.62
523301779,4,20.12,0,1412.38,0.32,0.20,-1.99,1.13,0.27,0.70,0.22,0.62
523431576,4,21.05,0,1412.38,0.36,0.41,-1.37,1.48,0.27,0.70,0.22,0.62
523551780,4,20.58,0,1412.38,0.39,-0.42,-0.78,1.14,0.27,0.70,0.22,0.62
523677686,4,20.58,0,1412.38,0.29,1.18,-0.72,0.02,0.27,0.71,0.22,0.62
523801776,4,20.58,0,1410.69,-3.75,2.09,-0.66,1.56,0.27,0.70,0.22,0.62
523927704,4,20.58,0,1410.69,-2.30,-0.56,-0.84,1.31,0.27,0.70,0.22,0.62
524051778,4,20.12,0,1410.69,-1.53,0.20,-0.02,-0.04,0.27,0.70,0.22,0.62
524177688,4,21.05,0,1410.69,-0.90,2.97,-0.01,1.38,0.27,0.70,0.22,0.62
524301778,4,20.58,0,1410.69,-0.46,-0.50,-0.90,1.49,0.27,0.70,0.23,0.62
524427935,4,20.58,0,1410.69,-0.23,-0.28,-0.31,0.40,0.27,0.70,0.23,0.62
524551780,4,20.12,0,1410.69,-0.02,2.39,-0.62,1.61,0.27,0.70,0.23,0.62
524678774,4,20.58,0,1410.69,0.11,-1.10,-1.49,0.63,0.27,0.70,0.23,0.62
524801778,4,21.05,0,1413.31,6.27,0.64,0.04,0.42,0.27,0.70,0.23,0.62
524930055,4,21.05,0,1413.31,4.35,-0.46,-0.16,2.52,0.27,0.70,0.23,0.62
525051778,4,21.05,0,1413.31,3.04,-0.91,-0.77,0.26,0.27,0.70,0.23,0.62
525177745,4,20.12,0,1413.31,2.16,1.19,-0.07,1.77,0.27,0.70,0.23,0.62
525301779,4,21.05,0,1413.31,1.65,0.11,-0.33,1.36,0.27,0.70,0.23,0.62
525427941,4,20.12,0,1413.31,1.15,-1.26,0.24,0.41,0.27,0.70,0.23,0.62
525551777,4,21.05,0,1413.31,0.93,1.50,0.86,1.36,0.27,0.70,0.23,0.62
525677682,4,20.58,0,1413.31,0.71,0.19,-1.61,0.67,0.27,0.70,0.23,0.61
525801780,4,21.05,0,1414.38,2.99,-0.63,0.85,0.78,0.27,0.70,0.23,0.62
525927694,4,20.58,0,1414.38,2.14,2.15,-1.27,1.52,0.27,0.70,0.22,0.62
526051780,4,20.58,0,1414.38,1.60,-1.30,-0.36,1.26,0.27,0.70,0.23,0.62
526177738,4,20.58,0,1414.38,1.16,0.73,-1.17,1.00,0.27,0.70,0.22,0.62
526301779,4,20.58,0,1414.38,0.89,-0.76,-0.48,0.92,0.27,0.70,0.23,0.62
526427923,4,20.58,0,1414.38,0.70,0.12,-0.45,1.18,0.27,0.70,0.23,0.62
526551777,4,20.58,0,1414.38,0.62,-1.21,-0.94,1.90,0.27,0.70,0.23,0.62
526677756,4,21.05,0,1414.38,0.56,0.13,0.07,0.81,0.27,0.70,0.22,0.61
526801777,4,20.12,0,1415.69,3.34,1.24,-1.06,1.22,0.28,0.70,0.23,0.61
526931029,4,20.58,0,1415.69,2.39,-0.97,0.06,2.18,0.28,0.70,0.22,0.61
527051779,4,20.12,0,1415.69,1.74,0.48,-0.53,0.20,0.27,0.71,0.22,0.61
527177751,4,20.58,0,1415.69,1.17,0.29,2.21,1.38,0.27,0.71,0.22,0.62
527301778,4,20.12,0,1415.69,1.09,0.49,-0.70,3.25,0.27,0.70,0.22,0.62
527427943,4,21.05,0,1415.69,0.82,-2.15,-1.78,0.01,0.27,0.71,0.22,0.62
527551779,4,20.58,0,1415.69,0.59,1.67,0.03,1.26,0.27,0.71,0.22,0.62
527677782,4,21.05,0,1412.25,-10.16,0.60,-0.17,1.22,0.27,0.71,0.22,0.62
527801778,4,20.58,0,1412.25,-6.84,0.05,-1.46,0.21,0.27,0.71,0.22,0.62
527927760,4,21.05,0,1412.25,-4.45,1.43,-0.64,1.62,0.27,0.71,0.22,0.62
528051778,4,21.05,0,1412.25,-2.94,0.48,-0.38,1.00,0.27,0.70,0.22,0.62
528178013,4,20.58,0,1412.25,-1.76,0.31,-1.75,3.19,0.27,0.70,0.22,0.62
528301778,4,20.58,0,1412.25,-1.01,-2.18,-0.25,-0.10,0.27,0.71,0.22,0.61
528427970,4,21.05,0,1412.25,-0.68,2.08,0.06,2.02,0.27,0.71,0.22,0.62
528551778,4,20.12,0,1412.25,-0.31,-1.15,0.37,1.93,0.27,0.70,0.22,0.62
528677765,4,21.05,0,1412.62,1.05,1.31,-0.74,0.61,0.27,0.71,0.22,0.62
528801779,4,20.12,0,1412.62,0.81,1.29,-1.09,2.06,0.27,0.71,0.22,0.62
528927756,4,21.05,0,1412.62,0.67,-0.17,-0.27,1.21,0.27,0.71,0.22,0.62
529051778,4,21.05,0,1412.62,0.56,0.68,-2.80,1.23,0.27,0.71,0.22,0.62
529177761,4,21.05,0,1412.62,0.54,1.16,-0.34,1.46,0.27,0.71,0.22,0.62
529301777,4,20.58,0,1412.62,0.43,0.04,-0.80,0.37,0.27,0.71,0.23,0.62
529427930,4,20.12,0,1412.62,0.41,1.63,-0.59,2.04,0.27,0.70,0.22,0.62
529551779,4,21.05,0,1412.62,0.39,-0.90,-0.41,0.94,0.27,0.71,0.23,0.62
529677738,4,20.58,0,1414.31,5.16,1.00,0.42,0.64,0.27,0.70,0.22,0.62
529801778,4,21.05,0,1414.31,3.62,-1.54,0.53,1.81,0.27,0.70,0.22,0.62
529928578,4,21.05,0,1414.31,2.59,0.24,0.40,1.53,0.27,0.71,0.22,0.62
530051778,4,20.12,0,1414.31,1.89,1.67,-1.35,0.06,0.26,0.71,0.22,0.62
530179685,4,20.58,0,1414.31,1.29,-1.25,-0.73,0.71,0.27,0.71,0.23,0.62
530301779,4,21.05,0,1414.31,1.03,0.01,-1.02,1.34,0.27,0.70,0.23,0.62
530431030,4,20.12,0,1414.31,0.80,0.68,-0.86,1.14,0.27,0.71,0.22,0.62
530551780,4,21.05,0,1414.31,0.69,0.08,0.16,2.05,0.27,0.70,0.23,0.62
530681267,4,20.58,0,1413.56,-1.49,1.50,-1.59,0.46,0.27,0.70,0.23,0.62
530801778,4,20.12,0,1413.56,-0.96,-0.16,-0.71,0.68,0.27,0.70,0.23,0.62
530927675,4,20.58,0,1413.56,-0.44,0.36,-0.28,1.75,0.27,0.70,0.22,0.62
531051779,4,21.05,0,1413.56,-0.20,0.00,0.17,0.54,0.27,0.70,0.22,0.62
531177686,4,21.05,0,1413.56,-0.01,-0.22,0.47,2.24,0.27,0.70,0.22,0.62
531301778,4,20.58,0,1413.56,0.18,1.14,1.24,0.57,0.27,0.70,0.22,0.62
531427926,4,20.58,0,1413.56,0.17,0.25,-1.76,1.28,0.27,0.70,0.22,0.62
531551780,4,21.05,0,1413.56,0.26,0.62,0.13,1.31,0.27,0.71,0.22,0.62
531677933,4,20.58,0,1413.75,0.77,-0.12,-0.99,0.29,0.27,0.71,0.22,0.62
531801777,4,21.05,0,1413.75,0.57,0.01,-0.26,1.59,0.27,0.71,0.22,0.62
531929091,4,20.58,0,1413.75,0.61,-0.37,-1.14,2.26,0.27,0.70,0.22,0.62
532051778,4,21.05,0,1413.75,0.52,0.05,-1.73,0.58,0.27,0.71,0.22,0.62
532180207,4,20.58,0,1413.75,0.43,0.32,0.05,0.62,0.27,0.71,0.22,0.62
532301776,4,21.05,0,1413.75,0.39,1.41,-0.27,1.30,0.27,0.71,0.22,0.62
532431491,4,20.12,0,1413.75,0.41,0.22,-1.28,0.81,0.27,0.71,0.22,0.62
532551778,4,21.05,0,1413.75,0.38,-1.01,-0.24,0.88,0.27,0.71,0.22,0.62
532677689,4,20.12,0,1410.31,-8.46,2.60,1.13,1.50,0.27,0.71,0.22,0.62
532801779,4,20.12,0,1410.31,-5.70,-1.01,-1.02,-0.07,0.27,0.71,0.22,0.62
532927680,4,21.05,0,1410.31,-3.66,1.15,0.81,2.12,0.27,0.70,0.22,0.62
533051779,4,20.58,0,1410.31,-2.33,0.57,-1.03,1.62,0.27,0.70,0.22,0.62
533177739,4,20.12,0,1410.31,-1.45,-0.45,-0.38,0.22,0.27,0.71,0.22,0.62
533301778,4,20.58,0,1410.31,-0.92,0.87,-0.43,2.27,0.27,0.70,0.22,0.62
533427963,4,21.05,0,1410.31,-0.42,-2.39,-0.57,0.73,0.27,0.71,0.23,0.62
533551776,4,21.05,0,1410.31,-0.25,0.16,-0.31,0.60,0.27,0.71,0.23,0.62
533678755,4,20.58,0,1412.62,5.55,1.54,-1.27,1.28,0.27,0.70,0.23,0.62
533801776,4,21.05,0,1412.62,3.96,0.94,-0.91,1.26,0.27,0.70,0.23,0.62
533930027,4,20.58,0,1412.62,2.71,-1.22,0.02,0.96,0.27,0.70,0.23,0.62
534051777,4,20.12,0,1412.62,1.95,1.12,-0.03,0.86,0.27,0.70,0.23,0.62
534178593,4,21.05,0,1412.62,1.40,-0.43,0.99,1.65,0.27,0.70,0.23,0.62
534301778,4,21.05,0,1412.62,1.11,0.43,-0.59,1.03,0.27,0.70,0.23,0.62
534427943,4,21.05,0,1412.62,0.86,0.39,-1.51,1.29,0.27,0.70,0.23,0.62
534551776,4,20.58,0,1412.62,0.72,0.82,-0.33,1.74,0.27,0.70,0.23,0.62
534677676,4,21.05,0,1412.75,0.88,-0.57,-0.59,0.59,0.27,0.70,0.23,0.62
534801775,4,20.58,0,1412.75,0.74,-0.57,-1.27,1.13,0.27,0.71,0.23,0.62
534927655,4,20.12,0,1412.75,0.60,0.22,-0.05,0.34,0.27,0.71,0.23,0.61
535051779,4,20.58,0,1412.75,0.49,-0.03,-0.29,1.12,0.27,0.71,0.23,0.61
535177664,4,20.58,0,1412.75,0.50,2.07,-0.16,1.45,0.27,0.71,0.22,0.62
535301777,4,20.58,0,1412.75,0.47,-1.45,-2.26,2.14,0.27,0.71,0.22,0.62
535427930,4,21.05,0,1412.75,0.41,1.71,1.71,-0.45,0.27,0.71,0.22,0.62
535551777,4,20.58,0,1412.75,0.42,3.32,-1.53,4.36,0.27,0.71,0.22,0.62
535677692,4,21.05,0,1411.75,-2.17,-0.03,1.39,-6.79,0.27,0.70,0.22,0.62
535801778,4,21.05,0,1411.75,-1.40,-1.82,4.95,8.55,0.27,0.70,0.22,0.63
535927682,4,21.05,0,1411.75,-0.26,-5.94,-1.61,0.51,0.27,0.70,0.23,0.62
536051777,4,21.05,0,1411.75,-0.33,-4.99,2.16,-0.07,0.27,0.70,0.23,0.61
536177685,4,20.12,0,1411.75,-0.23,0.48,4.04,0.38,0.26,0.71,0.22,0.62
536301776,4,20.12,0,1411.75,0.03,0.96,-1.90,0.26,0.26,0.71,0.22,0.62
536427920,4,21.05,0,1411.75,0.13,-1.40,1.33,1.02,0.27,0.71,0.23,0.62
536551777,4,21.05,0,1411.75,0.22,1.39,0.21,0.81,0.27,0.71,0.22,0.62
536677657,4,21.05,0,1413.06,3.14,0.57,0.81,1.13,0.27,0.71,0.22,0.62
536801777,4,20.58,0,1413.06,2.28,1.22,1.01,0.85,0.27,0.71,0.22,0.62
536927676,4,21.05,0,1413.06,1.64,1.90,-2.21,2.22,0.26,0.71,0.22,0.62
537051765,4,21.05,0,1413.06,1.29,1.17,0.41,1.54,0.26,0.70,0.23,0.62
537177923,4,21.05,0,1413.06,0.98,0.02,-1.95,0.86,0.26,0.70,0.23,0.62
537301767,4,20.12,0,1413.06,0.77,-2.07,-1.37,1.56,0.26,0.71,0.23,0.62
537427911,4,20.58,0,1413.06,0.62,-0.77,-1.30,1.41,0.26,0.71,0.22,0.62
537551766,4,21.05,0,1413.12,0.81,-1.26,-3.46,3.69,0.26,0.71,0.22,0.62
537677665,4,20.12,0,1413.12,0.83,-2.40,1.02,-1.76,0.26,0.71,0.23,0.61
4936161266,0,39.78,0,1383.12,-2.81,0.02,0.00,-0.07,0.17,-0.01,0.01,-0.99
4936284616,0,35.10,0,1383.12,-1.93,-0.02,0.01,-0.04,0.17,-0.01,0.01,-0.99
4936411254,0,37.91,0,1383.12,-1.28,-0.06,0.01,-0.03,0.17,-0.01,0.01,-0.99
4936534616,0,35.10,0,1383.12,-0.88,-0.02,0.02,-0.03,0.17,-0.01,0.01,-0.99
4936661255,0,39.31,0,1383.12,-0.59,-0.10,-0.03,-0.05,0.17,-0.01,0.01,-0.98
4936784615,0,39.31,0,1383.12,-0.41,0.00,0.00,-0.06,0.17,-0.01,0.01,-0.99
4936911265,0,38.84,0,1383.12,-0.28,0.01,0.03,-0.03,0.17,-0.01,0.01,-0.99
4937034615,0,39.31,0,1383.38,0.37,-0.02,0.00,-0.04,0.17,-0.01,0.01,-0.99
4937161555,0,39.78,0,1383.38,0.24,-0.06,-0.03,-0.07,0.17,-0.01,0.01,-0.99
4937284616,0,39.31,0,1383.38,0.16,-0.05,-0.03,-0.04,0.17,-0.01,0.01,-0.99
4937411966,0,34.63,0,1383.38,0.10,-0.02,0.00,-0.06,0.17,-0.01,0.01,-0.99
4937534617,0,35.10,0,1383.38,0.06,0.00,-0.01,-0.02,0.17,-0.01,0.01,-0.99
4937662340,0,39.31,0,1383.38,0.04,0.00,0.00,-0.07,0.17,-0.01,0.01,-0.99
4937784616,0,39.78,0,1383.38,0.02,-0.09,-0.05,-0.04,0.17,-0.01,0.01,-0.98
4937912682,0,38.84,0,1383.94,1.76,-0.09,-0.07,-0.06,0.17,-0.01,0.01,-0.98
4938034630,0,39.31,0,1383.94,1.20,-0.02,0.00,-0.05,0.17,-0.01,0.01,-0.99
4938163072,0,39.31,0,1383.94,0.79,0.00,0.01,-0.02,0.17,-0.01,0.01,-0.99
4938284629,0,34.63,0,1383.94,0.54,-0.01,0.00,-0.08,0.17,-0.01,0.01,-0.99
4938413407,0,35.10,0,1383.94,0.35,-0.05,-0.03,-0.03,0.17,-0.01,0.01,-0.99
4938534630,0,39.31,0,1383.94,0.23,-0.03,-0.04,-0.06,0.17,-0.01,0.01,-0.99
4938663804,0,39.31,0,1383.94,0.15,-0.04,-0.02,-0.06,0.17,-0.01,0.01,-0.99
4938784629,0,39.31,0,1383.94,0.10,0.00,0.02,-0.05,0.17,-0.01,0.01,-0.99
4938914321,0,34.16,0,1385.75,5.53,0.00,0.00,-0.05,0.17,-0.01,0.01,-0.99
4939034631,0,39.31,0,1385.75,3.78,-0.05,-0.06,-0.05,0.17,-0.01,0.01,-0.99
4939164708,0,39.31,0,1385.75,2.50,-0.02,-0.04,-0.09,0.17,-0.01,0.01,-0.99
4939284675,0,34.63,0,1385.75,1.70,0.00,-0.02,-0.04,0.17,-0.01,0.01,-0.99
4939415041,0,37.91,0,1385.75,1.12,0.02,-0.02,-0.04,0.17,-0.01,0.01,-0.99
4939534628,0,35.56,0,1385.75,0.76,0.01,0.00,-0.03,0.17,-0.01,0.01,-0.99
4939664822,0,39.31,0,1385.75,0.50,-0.05,-0.06,-0.06,0.17,-0.01,0.01,-0.99
4939784629,0,39.31,0,1385.75,0.34,0.02,-0.04,-0.06,0.17,-0.01,0.01,-0.99
4939912528,0,35.56,0,1384.62,-2.97,0.05,-0.01,-0.07,0.17,-0.01,0.01,-0.99
4940034628,0,39.31,0,1384.62,-2.04,0.03,0.00,-0.04,0.17,-0.01,0.01,-0.99
4940161258,0,39.31,0,1384.62,-1.35,0.04,0.03,-0.08,0.17,-0.01,0.01,-0.99
4940284629,0,34.63,0,1384.62,-0.93,-0.01,-0.04,-0.06,0.17,-0.01,0.01,-0.99
4940411258,0,34.63,0,1384.62,-0.62,0.03,0.01,-0.05,0.17,-0.01,0.01,-0.99
4940534631,0,35.10,0,1384.62,-0.43,-0.02,0.06,-0.04,0.17,-0.01,0.01,-0.99
4940661275,0,39.31,0,1384.62,-0.29,-0.09,0.05,-0.03,0.17,-0.01,0.01,-0.99
4940784631,0,39.31,0,1384.62,-0.20,-0.11,0.01,-0.05,0.17,-0.01,0.01,-0.99
4940911275,0,39.31,0,1383.12,-4.26,-0.08,-0.03,-0.05,0.17,-0.01,0.01,-0.99
4941034629,0,39.31,0,1383.12,-2.92,-0.08,-0.03,-0.05,0.17,-0.01,0.01,-0.99
4941161299,0,39.31,0,1383.12,-1.94,-0.09,-0.01,-0.05,0.17,-0.01,0.01,-0.99
4941284632,0,34.63,0,1383.12,-1.33,-0.08,-0.01,-0.06,0.17,-0.01,0.01,-0.99
4941411307,0,34.16,0,1383.12,-0.89,-0.12,-0.07,-0.03,0.17,-0.01,0.01,-0.99
4941534630,0,34.63,0,1383.12,-0.61,-0.16,-0.09,-0.02,0.17,-0.01,0.01,-0.99
4941661293,0,39.31,0,1383.12,-0.41,-0.03,-0.02,-0.08,0.17,-0.01,0.01,-0.99
4941784628,0,39.31,0,1383.12,-0.28,0.07,0.04,-0.04,0.16,-0.01,0.01,-0.99
4941911257,0,39.31,0,1384.25,2.70,0.02,0.00,-0.05,0.17,-0.01,0.01,-0.99
4942034630,0,39.31,0,1384.25,1.85,0.00,-0.01,-0.04,0.17,-0.01,0.01,-0.99
4942161270,0,38.84,0,1384.25,1.22,-0.08,-0.09,-0.06,0.17,-0.01,0.01,-0.99
4942284629,0,35.10,0,1384.25,0.83,0.05,0.02,-0.04,0.17,-0.01,0.01,-0.99
4942411271,0,35.10,0,1384.25,0.54,0.11,0.02,-0.03,0.17,-0.01,0.01,-0.99
4942534630,0,35.10,0,1384.25,0.37,-0.04,-0.03,-0.05,0.17,-0.01,0.01,-0.99
4942661489,0,39.31,0,1384.25,0.24,-0.03,-0.05,-0.07,0.17,-0.01,0.01,-0.99
4942784629,0,39.31,0,1384.25,0.16,-0.08,-0.05,-0.03,0.17,-0.01,0.01,-0.99
4942911775,0,39.31,0,1384.44,0.57,0.04,0.06,-0.05,0.17,-0.01,0.01,-0.99
4943034630,0,39.31,0,1384.44,0.38,-0.05,0.01,-0.02,0.17,-0.01,0.01,-0.99
4943162162,0,39.31,0,1384.44,1.88,-2.67,0.15,29.93,0.16,-0.01,0.02,-0.99
4943284629,0,35.10,0,1384.44,4.27,-1.47,0.79,29.92,0.10,-0.00,0.01,-0.99
4943412500,0,35.10,0,1384.44,6.02,-0.57,-2.37,29.92,0.01,0.00,0.01,-1.00
4943534631,0,35.10,0,1384.44,7.11,-3.66,-0.18,29.92,0.00,0.01,0.01,-1.00
4943663065,0,39.31,0,1384.44,7.91,-1.16,-1.43,29.96,0.00,0.05,0.01,-1.00
4943784627,0,39.31,0,1384.44,8.41,2.66,-1.03,30.05,0.00,0.08,0.01,-1.00
4943913407,1,39.31,0,1412.88,75.38,9.05,-2.31,30.18,0.01,0.12,0.00,-0.99
4944063596,1,39.31,0,1412.88,50.52,8.77,-2.07,30.22,0.03,0.12,0.00,-0.99
4944186420,1,39.31,0,1412.88,37.58,4.25,-2.82,30.13,0.07,0.10,-0.00,-0.99
4944313966,1,39.31,0,1412.88,28.12,-0.86,-2.33,30.03,0.11,0.08,-0.00,-0.99
4944436418,1,39.31,0,1412.88,22.24,-3.53,-1.20,29.99,0.14,0.06,0.01,-0.99
4944564321,1,39.31,0,1412.88,17.94,-3.01,0.98,29.99,0.16,0.06,0.02,-0.99
4944686421,1,39.31,0,1412.88,15.27,0.20,2.03,30.03,0.15,0.07,0.03,-0.99
4944816174,1,39.31,0,1483.69,233.75,5.48,2.26,30.08,0.11,0.08,0.03,-0.99
4944936424,1,39.31,0,1483.69,162.94,4.63,0.71,30.09,0.05,0.09,0.03,-0.99
4945064828,1,39.31,0,1483.69,111.23,1.03,-0.93,30.06,0.01,-0.08,-0.03,1.00
4945186419,1,39.31,0,1483.69,79.11,-1.17,-0.29,30.05,0.06,-0.08,-0.03,0.99
4945314867,1,39.78,0,1483.69,55.65,0.61,0.02,30.07,0.14,-0.08,-0.04,0.99
4945436417,1,39.31,0,1483.69,41.08,2.04,3.23,30.10,0.23,-0.09,-0.04,0.97
4945563344,1,39.31,0,1483.69,30.45,1.88,2.68,30.10,0.35,-0.08,-0.05,0.93
4945686420,1,39.31,0,1483.69,23.84,-1.59,2.68,30.08,0.47,-0.07,-0.05,0.88
4945812812,1,39.31,0,1601.06,361.97,1.28,-1.23,30.06,0.62,-0.07,-0.05,0.78
4945936422,1,39.31,0,1601.06,250.67,1.18,6.60,30.07,0.74,-0.06,-0.06,0.67
4946061418,1,39.31,0,1601.06,169.39,-3.64,4.90,30.06,0.86,-0.04,-0.07,0.51
4946186420,1,39.31,0,1601.06,118.90,-0.98,0.05,30.01,0.95,-0.02,-0.06,0.32
4946311418,1,39.78,0,1601.06,82.02,-0.06,3.71,30.02,0.99,-0.01,-0.07,0.10
4946436420,1,39.78,0,1601.06,59.03,-4.45,3.18,27.24,0.99,0.01,-0.07,-0.10
4946561418,1,39.78,0,1601.06,40.60,-1.49,3.49,4.49,0.94,0.03,-0.05,-0.33
4946686419,1,39.78,0,1601.06,27.28,-3.96,7.21,-10.72,0.84,0.04,-0.04,-0.54
4946812839,1,39.78,0,1832.94,672.97,-4.81,3.83,-17.16,0.66,0.06,-0.02,-0.75
4946936423,1,40.25,0,1832.94,458.66,-0.99,10.74,-18.12,0.43,0.06,0.00,-0.90
4947061418,1,39.78,0,1832.94,302.08,2.49,8.50,-19.05,0.12,0.08,0.02,-0.99
4947186420,1,40.25,0,1832.94,204.80,3.29,3.19,-18.63,0.18,-0.08,-0.04,0.98
4947311418,1,40.25,0,1832.94,133.73,-1.51,6.65,-19.66,0.48,-0.07,-0.05,0.87
4947436421,1,40.25,0,1832.94,89.63,-1.85,5.66,-19.35,0.71,-0.05,-0.06,0.70
4947561419,1,40.71,0,1832.94,57.42,-3.65,9.50,-19.36,0.89,-0.04,-0.06,0.46
4947686418,1,40.25,0,1832.94,37.43,-1.30,6.21,-18.84,0.98,-0.02,-0.06,0.18
4947717689,2,40.25,0,1832.94,33.51,-1.13,4.63,-18.64,0.99,-0.02,-0.06,0.11
4947812797,2,40.25,30,2132.88,819.90,-0.98,5.21,-18.95,0.99,-0.00,-0.05,-0.14
4947936423,2,41.18,30,2132.88,559.16,-1.45,3.45,-19.19,0.91,0.02,-0.04,-0.41
4948061419,2,40.71,100,2132.88,368.91,-8.85,1.67,-13.48,0.73,0.04,-0.03,-0.68
4948186421,2,41.18,44,2132.88,250.42,-1.25,3.94,-21.01,0.50,0.05,-0.02,-0.87
4948311563,2,41.18,30,2132.88,163.93,5.28,3.81,-19.34,0.17,0.07,0.01,-0.98
4948436421,2,40.71,30,2132.88,110.40,0.81,8.12,-17.59,0.16,-0.07,-0.03,0.98
4948561850,2,41.18,30,2132.88,71.31,-1.95,6.87,-17.59,0.51,-0.05,-0.05,0.86
4948686420,2,41.18,30,2132.88,47.05,0.25,5.01,-17.29,0.76,-0.04,-0.06,0.64
4948813695,2,40.71,30,2546.12,1093.35,-1.94,6.60,-17.42,0.94,-0.02,-0.06,0.35
4948936423,2,41.18,30,2546.12,746.39,-6.01,5.61,-17.35,1.00,0.00,-0.06,0.04
4949062578,2,41.18,30,2546.12,493.00,0.15,2.65,-17.22,0.95,0.03,-0.04,-0.30
4949186419,2,41.18,100,2546.12,335.64,0.73,5.75,-16.78,0.82,0.04,-0.02,-0.57
4949312934,2,41.18,38,2546.12,220.70,-1.47,1.06,-18.76,0.57,0.06,-0.01,-0.82
4949436418,2,41.18,30,2546.12,149.19,1.67,5.01,-17.17,0.29,0.07,0.01,-0.95
4949563289,2,41.18,30,2546.12,97.15,-0.27,4.99,-16.49,0.02,-0.06,-0.03,1.00
4949686420,2,41.18,30,2546.12,64.84,0.18,3.75,-16.53,0.34,-0.06,-0.04,0.94
4949814847,2,41.18,30,2753.75,543.09,-0.78,5.57,-15.83,0.62,-0.05,-0.05,0.78
4949936423,2,41.18,30,2753.75,370.01,-2.31,4.85,-15.60,0.83,-0.04,-0.06,0.56
4950063927,2,41.18,100,2753.75,243.61,-2.26,5.50,-15.84,0.96,-0.02,-0.06,0.27
4950186422,2,41.18,30,2753.75,165.06,-1.14,4.27,-16.92,1.00,0.00,-0.05,-0.03
4950311416,2,41.18,30,2753.75,107.72,-1.09,2.48,-15.80,0.94,0.03,-0.04,-0.34
4950436422,2,41.18,30,2753.75,72.16,0.13,1.46,-15.73,0.80,0.05,-0.03,-0.59
4950561418,2,41.18,30,2753.75,46.20,-1.00,1.15,-15.74,0.59,0.06,-0.01,-0.81
4950686419,2,41.18,30,2753.75,30.08,1.19,2.15,-15.31,0.35,0.07,0.01,-0.93
4950812725,2,41.18,30,2962.25,506.58,0.72,3.50,-15.01,0.07,0.07,0.03,-0.99
4950936418,2,41.65,30,2962.25,345.12,-0.26,4.24,-15.37,0.20,-0.07,-0.04,0.98
4951061422,2,41.18,87,2962.25,227.20,-0.64,4.01,-15.05,0.47,-0.06,-0.05,0.88
4951186424,2,41.18,30,2962.25,153.96,-2.23,3.73,-17.15,0.68,-0.05,-0.06,0.73
4951311419,2,41.18,30,2962.25,100.44,-1.45,5.24,-14.88,0.86,-0.03,-0.06,0.51
4951436421,2,41.18,30,2962.25,67.26,-1.07,3.53,-14.84,0.96,-0.01,-0.06,0.26
4951561419,2,41.65,30,2962.25,43.04,-0.88,3.40,-14.93,1.00,0.01,-0.05,-0.03
4951686417,2,41.18,30,2962.25,28.00,-0.99,1.62,-14.48,0.96,0.03,-0.04,-0.29
4951812737,2,41.18,30,3164.38,461.33,-0.35,0.43,-14.43,0.84,0.05,-0.02,-0.54
4951936420,2,41.18,30,3164.38,314.23,0.22,0.63,-14.20,0.68,0.06,-0.01,-0.73
4952061419,2,41.18,78,3164.38,206.80,-0.80,2.66,-14.35,0.46,0.06,0.01,-0.89
4952186425,2,41.18,30,3164.38,140.07,-0.29,1.47,-15.34,0.23,0.07,0.02,-0.97
4952311420,2,41.18,30,3164.38,91.35,0.98,4.36,-13.76,0.03,-0.07,-0.04,1.00
4952436419,2,41.18,30,3164.38,61.12,0.12,5.17,-13.85,0.28,-0.06,-0.05,0.96
4952561423,2,41.18,30,3164.38,39.05,0.06,3.64,-13.81,0.53,-0.05,-0.06,0.84
4952686418,2,41.18,30,3350.56,604.89,0.63,4.07,-13.60,0.72,-0.04,-0.06,0.69
4952812725,2,41.18,30,3350.56,399.56,-1.17,2.48,-13.37,0.88,-0.02,-0.07,0.47
4952936423,2,41.18,30,3350.56,272.03,-2.08,1.82,-13.36,0.96,-0.01,-0.07,0.26
4953061420,2,40.71,73,3350.56,178.89,-2.13,1.97,-13.69,1.00,0.01,-0.06,0.02
4953186414,2,41.18,30,3350.56,121.02,-2.31,1.54,-13.84,0.98,0.02,-0.05,-0.20
4953311417,2,41.18,30,3350.56,78.79,-2.87,1.10,-13.52,0.90,0.04,-0.04,-0.44
4953436417,2,41.18,30,3350.56,52.60,0.75,1.49,-12.75,0.77,0.06,-0.01,-0.63
4953561420,2,41.18,30,3350.56,33.46,1.69,3.05,-13.19,0.59,0.07,0.01,-0.80
4953686417,2,41.18,30,3528.94,559.52,1.15,1.25,-13.34,0.38,0.07,0.02,-0.92
4953812722,2,40.71,30,3528.94,369.54,0.58,1.43,-12.99,0.13,0.07,0.03,-0.99
4953936422,2,41.18,30,3528.94,251.56,1.67,1.36,-12.99,0.10,-0.07,-0.04,0.99
4954061421,2,41.18,68,3528.94,165.40,-0.14,3.44,-12.76,0.33,-0.07,-0.06,0.94
4954186416,2,40.71,30,3528.94,111.87,-1.14,4.57,-13.24,0.52,-0.06,-0.07,0.85
4954311419,2,41.18,30,3528.94,72.79,-1.41,3.76,-12.73,0.70,-0.04,-0.08,0.71
4954436417,2,40.71,30,3528.94,48.53,-1.70,3.32,-12.81,0.84,-0.03,-0.08,0.54
4954561423,2,40.71,30,3528.94,30.82,-1.48,2.62,-12.95,0.94,-0.01,-0.07,0.33
4954686417,2,41.18,30,3695.94,492.59,-1.32,2.38,-12.83,0.99,0.01,-0.06,0.12
4954813019,2,40.71,30,3695.94,325.21,-1.09,1.12,-12.56,0.99,0.03,-0.05,-0.10
4954936420,2,41.18,30,3695.94,221.27,-0.99,0.35,-12.48,0.94,0.05,-0.04,-0.32
4955061419,2,40.71,64,3695.94,145.35,-0.43,1.40,-12.38,0.85,0.06,-0.02,-0.52
4955186418,2,40.71,30,3695.94,98.20,0.89,1.94,-12.46,0.71,0.07,-0.00,-0.70
4955311418,2,40.25,30,3695.94,63.78,0.93,2.86,-12.42,0.54,0.08,0.01,-0.83
4955436416,2,40.71,30,3695.94,42.42,1.44,0.31,-12.35,0.33,0.09,0.02,-0.94
4955561419,2,41.18,30,3695.94,26.82,3.34,0.61,-12.31,0.12,0.09,0.04,-0.99
4955686416,2,40.71,30,3851.81,444.68,2.98,3.62,-11.97,0.10,-0.09,-0.06,0.99
4955812704,2,40.25,30,3851.81,293.51,-0.59,3.49,-12.06,0.30,-0.07,-0.07,0.95
4955936424,2,40.25,30,3851.81,199.62,-1.09,3.14,-11.92,0.49,-0.06,-0.08,0.87
4956061420,2,40.25,61,3851.81,131.06,-0.84,3.26,-12.07,0.66,-0.05,-0.09,0.75
4956186417,2,40.25,30,3851.81,88.46,-1.15,3.29,-12.38,0.79,-0.03,-0.09,0.61
4956311419,2,40.25,30,3851.81,57.37,-1.79,1.96,-11.97,0.90,-0.02,-0.09,0.43
4956436416,2,40.25,30,3851.81,38.07,-1.61,1.65,-11.98,0.96,0.00,-0.08,0.25
4956561419,2,40.25,30,3851.81,23.98,-2.05,1.56,-11.77,1.00,0.02,-0.08,0.05
4956686416,2,40.25,30,3995.94,386.31,-1.96,0.73,-11.78,0.99,0.04,-0.07,-0.14
4956812710,2,40.25,30,3995.94,254.84,-0.66,-0.39,-11.68,0.94,0.06,-0.05,-0.34
4956936421,2,40.25,30,3995.94,173.20,-0.38,-0.43,-11.61,0.85,0.07,-0.03,-0.52
4957061420,2,40.25,59,3995.94,113.58,0.98,0.69,-11.44,0.73,0.08,-0.01,-0.68
4957186417,2,40.25,30,3995.94,76.53,1.06,1.29,-11.88,0.60,0.09,0.01,-0.80
4957311418,2,40.25,30,3995.94,49.51,1.14,1.81,-11.44,0.43,0.09,0.03,-0.90
4957436409,2,40.25,30,3995.94,32.74,0.46,1.54,-11.35,0.25,0.09,0.05,-0.96
4957561422,2,40.25,30,3995.94,20.50,1.51,2.45,-11.25,0.05,0.08,0.06,-0.99
4957686407,2,39.78,30,4120.12,322.70,1.00,3.64,-11.23,0.13,-0.08,-0.08,0.98
4957812730,2,40.25,30,4120.12,212.73,0.18,4.12,-11.15,0.33,-0.07,-0.09,0.94
4957936405,2,40.25,30,4120.12,144.44,-0.52,3.57,-11.29,0.50,-0.06,-0.10,0.86
4958061419,2,40.25,56,4120.12,94.56,-0.67,3.28,-11.06,0.67,-0.04,-0.10,0.74
4958186408,2,39.78,30,4120.12,63.55,-2.72,2.73,-11.47,0.80,-0.02,-0.10,0.60
4958311418,2,39.78,30,4120.12,40.93,-1.95,2.34,-11.10,0.90,-0.00,-0.10,0.42
4958436420,2,39.78,30,4120.12,26.89,-1.27,1.73,-11.09,0.97,0.02,-0.09,0.24
4958561423,2,39.78,30,4120.12,16.64,-1.39,0.31,-11.11,1.00,0.04,-0.07,0.03
4958686419,2,39.78,30,4244.31,301.08,-0.63,-1.01,-11.22,0.98,0.06,-0.06,-0.15
4958812740,2,39.78,30,4244.31,198.41,-0.66,-1.57,-11.25,0.93,0.07,-0.05,-0.35
4958936423,2,39.78,30,4244.31,134.65,-0.18,-1.13,-11.16,0.86,0.08,-0.04,-0.50
4959061420,2,39.78,55,4244.31,88.09,0.10,-1.60,-10.99,0.75,0.09,-0.02,-0.65
4959186420,2,39.78,45,4244.31,59.15,0.53,-0.41,-11.15,0.63,0.10,-0.00,-0.77
4959311417,2,39.78,30,4244.31,38.02,0.72,0.20,-10.96,0.49,0.10,0.02,-0.87
4959436418,2,39.78,30,4244.31,24.93,1.51,1.09,-10.85,0.34,0.10,0.04,-0.93
4959561423,2,39.78,30,4244.31,15.37,1.85,2.24,-10.81,0.17,0.10,0.06,-0.98
4959686422,2,39.31,30,4360.50,273.05,1.58,2.51,-10.77,0.00,0.10,0.07,-0.99
4959812728,2,39.78,30,4360.50,179.88,1.24,3.17,-10.71,0.18,-0.09,-0.09,0.98
4959936423,2,39.78,39,4360.50,122.02,0.54,4.23,-10.67,0.34,-0.08,-0.10,0.93
4960061423,2,39.78,50,4360.50,79.75,0.34,3.68,-10.71,0.50,-0.07,-0.11,0.85
4960186420,2,39.78,65,4360.50,53.50,-1.10,4.10,-10.59,0.64,-0.05,-0.11,0.76
4960311417,2,39.78,60,4360.50,34.29,-0.88,3.33,-11.06,0.77,-0.03,-0.11,0.62
4960436421,2,39.78,37,4360.50,22.36,-1.03,2.35,-10.90,0.87,-0.01,-0.10,0.48
4960561420,2,39.78,30,4467.75,347.52,-1.27,1.62,-10.60,0.95,0.01,-0.09,0.31
4960686419,2,39.78,30,4467.75,236.72,-1.01,1.19,-10.61,0.99,0.03,-0.08,0.15
4960812764,2,39.31,30,4467.75,155.79,-1.04,1.46,-10.67,1.00,0.05,-0.07,-0.04
4960936424,2,39.78,41,4467.75,105.54,-0.31,-0.67,-10.46,0.97,0.07,-0.06,-0.23
4961061507,2,39.31,45,4467.75,68.84,0.58,-1.66,-10.48,0.90,0.10,-0.04,-0.41
4961186421,2,39.31,74,4467.75,46.05,1.78,-1.56,-10.50,0.82,0.11,-0.02,-0.57
4961311418,2,39.31,97,4467.75,29.36,2.50,-0.61,-10.98,0.71,0.12,-0.01,-0.70
4961436421,2,39.31,100,4467.75,18.95,2.38,-0.41,-11.02,0.58,0.13,0.01,-0.81
4961561420,2,39.31,30,4726.06,790.37,2.47,-1.38,-11.21,0.44,0.13,0.02,-0.89
4961686418,2,39.31,30,4726.06,539.69,2.37,-1.06,-11.01,0.29,0.13,0.03,-0.95
4961812735,2,38.84,30,4726.06,356.66,2.89,-0.87,-10.23,0.15,0.13,0.05,-0.98
4961936421,2,39.31,30,4726.06,243.02,2.49,0.06,-10.16,0.02,0.12,0.07,-0.99
4962061420,2,39.31,100,4726.06,160.03,1.85,1.83,-10.09,0.09,-0.11,-0.09,0.99
4962186420,2,39.31,100,4726.06,108.49,0.76,3.35,-10.16,0.19,-0.09,-0.11,0.97
4962311417,2,38.84,30,4726.06,70.81,-0.80,3.66,-10.35,0.31,-0.07,-0.13,0.94
4962436420,2,39.31,30,4726.06,47.43,-1.91,4.07,-10.10,0.41,-0.06,-0.14,0.90
4962561420,2,39.31,30,4646.19,-195.75,-2.50,3.24,-9.95,0.53,-0.04,-0.14,0.84
4962686418,2,38.84,30,4646.19,-134.93,-2.28,2.78,-9.91,0.63,-0.03,-0.14,0.76
4962719181,3,39.31,30,4646.19,-123.00,-2.53,2.56,-9.98,0.66,-0.03,-0.14,0.74
4962722012,4,38.84,0,4646.19,-119.27,-2.37,2.41,-9.91,0.66,-0.03,-0.14,0.73
4962812816,4,38.84,0,4646.19,-90.51,-2.07,2.55,-9.98,0.73,-0.02,-0.14,0.66
4962936417,4,39.31,0,4646.19,-62.91,-2.12,2.51,-9.88,0.81,-0.02,-0.14,0.56
4963061416,4,39.31,0,4646.19,-42.76,-2.06,2.83,-9.88,0.89,-0.01,-0.14,0.44
4963186418,4,39.31,0,4646.19,-30.25,-2.89,2.75,-9.97,0.94,0.01,-0.14,0.32
4963311417,4,39.31,0,4646.19,-21.11,-3.06,1.49,-9.92,0.98,0.03,-0.13,0.17
4963436418,4,39.31,0,4646.19,-15.44,-3.27,-0.15,-9.94,0.99,0.06,-0.12,0.03
4963561418,4,39.31,0,4713.62,173.68,-2.33,-1.45,-9.82,0.98,0.08,-0.10,-0.13
4963686418,4,39.31,0,4713.62,117.86,-1.13,-1.97,-9.85,0.96,0.10,-0.08,-0.26
4963812720,4,38.84,0,4713.62,77.09,-0.12,-1.98,-9.85,0.91,0.12,-0.06,-0.40
4963936418,4,39.31,0,4713.62,51.76,0.98,-1.67,-9.78,0.84,0.13,-0.03,-0.52
4964061418,4,39.31,0,4713.62,33.28,1.55,-1.26,-9.75,0.75,0.14,-0.01,-0.64
4964186419,4,39.31,0,4713.62,21.80,2.13,-0.77,-9.70,0.66,0.14,0.02,-0.74
4964311415,4,39.31,0,4713.62,13.42,2.41,0.02,-9.68,0.54,0.15,0.04,-0.83
4964436417,4,39.31,0,4713.62,8.22,2.67,0.59,-9.59,0.42,0.14,0.06,-0.89
4964561419,4,38.84,0,4780.81,177.42,2.64,1.15,-9.57,0.28,0.14,0.08,-0.94
4964686418,4,38.84,0,4780.81,120.44,2.61,1.83,-9.44,0.16,0.14,0.10,-0.97
4964812772,4,39.31,0,4780.81,78.84,2.45,2.41,-9.43,0.02,0.13,0.12,-0.98
4964936418,4,39.31,0,4780.81,53.00,2.06,2.84,-9.39,0.11,-0.12,-0.13,0.98
4965061418,4,38.84,0,4780.81,34.14,1.33,3.67,-9.35,0.24,-0.10,-0.15,0.95
4965186418,4,38.84,0,4780.81,22.43,0.59,4.02,-9.32,0.35,-0.09,-0.17,0.92
4965311417,4,38.84,0,4780.81,13.88,-0.38,4.21,-9.28,0.46,-0.07,-0.18,0.87
4965436417,4,39.31,0,4780.81,8.57,-1.26,3.79,-9.29,0.55,-0.04,-0.19,0.81
4965561415,4,39.31,0,4838.75,149.23,-2.43,3.33,-9.27,0.64,-0.02,-0.19,0.74
4965686419,4,39.31,0,4838.75,101.19,-3.24,2.71,-9.18,0.72,0.01,-0.20,0.67
4965812780,4,39.31,0,4838.75,66.10,-4.07,1.76,-9.19,0.79,0.03,-0.19,0.58
4965936417,4,39.31,0,4838.75,44.31,-4.24,0.91,-9.17,0.84,0.06,-0.19,0.50
4966061419,4,38.84,0,4838.75,28.40,-4.23,-0.02,-9.16,0.89,0.08,-0.18,0.41
4966186416,4,39.31,0,4838.75,18.51,-3.98,-0.64,-9.20,0.93,0.09,-0.17,0.32
4966311414,4,39.31,0,4838.75,11.30,-3.70,-1.23,-9.22,0.95,0.11,-0.16,0.23
4966436417,4,39.31,0,4838.75,6.82,-3.39,-1.77,-9.12,0.97,0.12,-0.15,0.14
4966561416,4,38.84,0,4886.44,115.22,-2.88,-2.30,-9.15,0.98,0.14,-0.14,0.05
4966686417,4,39.31,0,4886.44,77.92,-2.42,-2.66,-9.10,0.98,0.15,-0.13,-0.04
4966813161,4,38.84,0,4886.44,50.69,-1.95,-2.84,-9.10,0.97,0.16,-0.11,-0.13
4966936416,4,38.84,0,4886.44,33.77,-1.45,-2.99,-9.07,0.96,0.17,-0.10,-0.20
4967062036,4,38.84,0,4886.44,21.42,-0.88,-3.32,-9.06,0.93,0.18,-0.08,-0.30
4967186418,4,39.31,0,4886.44,13.75,-0.34,-3.38,-9.00,0.91,0.19,-0.07,-0.37
4967312391,4,39.31,0,4886.44,8.16,0.36,-3.37,-8.93,0.87,0.21,-0.05,-0.45
4967436418,4,38.84,0,4886.44,4.70,0.82,-3.48,-8.85,0.82,0.22,-0.04,-0.52
4967562771,4,39.31,0,4924.50,85.85,1.98,-3.47,-8.76,0.76,0.23,-0.01,-0.60
4967686417,4,39.31,0,4924.50,57.87,2.97,-3.00,-8.60,0.71,0.24,0.01,-0.66
4967814602,4,38.84,0,4924.50,37.45,3.79,-2.08,-8.51,0.64,0.25,0.04,-0.72
4967936417,4,38.84,0,4924.50,24.79,4.37,-1.41,-8.36,0.58,0.26,0.07,-0.77
4968063478,4,38.84,0,4924.50,15.55,4.80,-0.55,-8.23,0.50,0.26,0.10,-0.82
4968186418,4,39.31,0,4924.50,9.83,5.05,0.25,-8.12,0.42,0.26,0.13,-0.86
4968313642,4,38.84,0,4924.50,5.66,5.12,1.37,-7.92,0.34,0.26,0.16,-0.89
4968436419,4,39.31,0,4924.50,3.09,5.08,2.35,-7.78,0.25,0.25,0.19,-0.91
4968564033,4,39.31,0,4958.88,74.45,4.82,3.43,-7.61,0.16,0.24,0.22,-0.93
4968686418,4,38.84,0,4958.88,50.19,4.37,4.22,-7.40,0.08,0.23,0.25,-0.94
4968815878,4,38.84,0,4958.88,32.50,3.67,5.17,-7.22,0.01,-0.22,-0.28,0.94
4968936417,4,39.31,0,4958.88,21.53,2.88,5.89,-7.06,0.08,-0.20,-0.31,0.93
4969064746,4,39.31,0,4958.88,13.53,1.87,6.60,-6.86,0.16,-0.18,-0.33,0.91
4969186419,4,39.31,0,4958.88,8.59,0.83,7.10,-6.63,0.24,-0.16,-0.36,0.89
4969315128,4,39.31,0,4958.88,5.00,-0.23,7.44,-6.48,0.31,-0.14,-0.38,0.86
4969436417,4,39.31,0,4976.75,58.44,-1.37,7.49,-6.22,0.37,-0.11,-0.40,0.83
4969564764,4,38.84,0,4976.75,38.09,-2.49,7.38,-6.06,0.44,-0.08,-0.42,0.79
4969686418,4,39.31,0,4976.75,25.47,-3.66,7.08,-5.87,0.49,-0.05,-0.44,0.75
4969815810,4,39.31,0,4976.75,16.28,-4.73,6.56,-5.63,0.55,-0.02,-0.45,0.70
4969936419,4,39.31,0,4976.75,10.60,-5.70,5.91,-5.44,0.59,0.01,-0.46,0.66
4970061602,4,39.31,0,4976.75,6.46,-6.52,5.13,-5.23,0.63,0.05,-0.47,0.61
4970186415,4,39.31,0,4976.75,3.92,-7.22,4.25,-4.99,0.67,0.08,-0.48,0.56
4970311419,4,39.31,0,4976.75,2.08,-7.87,3.33,-4.74,0.70,0.12,-0.49,0.50
4970436418,4,38.84,0,4990.12,40.04,-8.32,2.30,-4.50,0.73,0.15,-0.49,0.45
4970561418,4,38.84,0,4990.12,26.07,-8.64,1.23,-4.27,0.75,0.19,-0.49,0.40
4970686417,4,39.31,0,4990.12,17.42,-8.75,0.10,-3.97,0.77,0.22,-0.49,0.35
4970812770,4,39.31,0,4990.12,11.14,-8.78,-1.05,-3.65,0.78,0.26,-0.49,0.29
4970936416,4,39.31,0,4990.12,7.27,-8.66,-2.24,-3.31,0.79,0.30,-0.48,0.24
4971061418,4,39.31,0,4990.12,4.48,-8.54,-3.26,-2.96,0.79,0.34,-0.47,0.18
4971186418,4,39.31,0,4990.12,2.79,-8.03,-4.40,-2.53,0.79,0.38,-0.46,0.13
4971311420,4,38.84,0,4990.12,1.60,-7.41,-5.44,-2.14,0.78,0.42,-0.45,0.08
4971436417,4,39.31,0,4992.38,7.27,-6.88,-6.25,-1.70,0.77,0.46,-0.44,0.03
4971561418,4,39.31,0,4992.38,4.67,-6.05,-7.19,-1.22,0.76,0.51,-0.41,-0.02
4971686417,4,38.84,0,4992.38,3.10,-4.97,-7.95,-0.69,0.74,0.55,-0.39,-0.07
4971812724,4,39.31,0,4992.38,2.01,-3.87,-8.53,-0.13,0.71,0.59,-0.36,-0.11
4971936417,4,38.84,0,4992.38,0.07,-2.05,-8.46,0.88,0.69,0.63,-0.33,-0.16
4972061417,4,39.31,0,4992.38,0.11,-1.32,-9.15,0.50,0.66,0.67,-0.28,-0.20
4972186417,4,39.31,0,4992.38,0.14,-0.31,-8.75,0.80,0.64,0.70,-0.23,-0.23
4972311416,4,38.84,0,4992.38,0.20,1.30,-8.11,1.19,0.60,0.73,-0.17,-0.27
4972436417,4,39.31,0,4992.12,-0.39,2.44,-7.65,1.51,0.57,0.75,-0.11,-0.31
4972561415,4,39.31,0,4992.12,-0.08,4.00,-6.45,1.76,0.53,0.77,-0.03,-0.35
4972686415,4,39.31,0,4992.12,0.14,4.63,-5.61,2.09,0.48,0.78,0.05,-0.40
4972812720,4,39.31,0,4992.12,0.32,5.93,-3.43,2.24,0.43,0.78,0.14,-0.44
4972936415,4,39.31,0,4992.12,0.44,6.46,-2.63,2.26,0.39,0.76,0.22,-0.47
4973061420,4,38.84,0,4992.12,0.52,6.06,-1.97,2.20,0.36,0.74,0.28,-0.49
4973186417,4,38.84,0,4992.12,0.57,6.11,-1.43,2.12,0.35,0.73,0.32,-0.50
4973311577,4,39.31,0,4992.12,0.60,5.71,-0.88,1.89,0.36,0.71,0.34,-0.50
4973436417,4,38.84,0,4986.25,-14.06,5.57,-0.10,1.89,0.38,0.71,0.34,-0.49
4973561997,4,39.31,0,4986.25,-9.13,4.91,-0.84,1.46,0.42,0.70,0.32,-0.47
4973686419,4,38.84,0,4986.25,-6.16,2.96,-3.15,0.89,0.49,0.70,0.27,-0.44
4973813822,4,39.31,0,4986.25,-4.07,0.40,-2.59,-0.94,0.62,0.69,0.10,-0.35
4973936415,4,38.84,0,4986.25,-3.19,0.60,1.64,-6.46,0.72,0.60,0.05,-0.35
4974062689,4,38.84,0,4986.25,-3.21,-2.29,2.93,-13.08,0.76,0.33,0.12,-0.55
4974186414,4,38.84,0,4986.25,-3.63,-7.45,2.29,-13.28,0.69,0.02,0.07,-0.72
4974313053,4,38.84,0,4986.25,-3.54,1.81,4.80,-11.23,0.54,-0.39,-0.19,-0.72
4974436417,4,39.31,0,4967.75,-47.08,13.45,7.69,4.12,0.37,-0.53,-0.38,-0.66
4974563417,4,38.84,0,4967.75,-30.82,8.98,2.28,1.77,0.26,-0.52,-0.41,-0.70
4974686416,4,38.84,0,4967.75,-21.30,3.86,2.21,-4.12,0.23,-0.39,-0.27,-0.85
4974815279,4,38.84,0,4967.75,-14.61,-13.22,-6.52,-3.84,0.23,-0.15,-0.01,-0.96
4974936417,4,38.84,0,4967.75,-10.25,-14.75,-10.33,-1.37,0.15,-0.02,0.14,-0.98
4975064134,4,38.84,0,4967.75,-7.17,-6.41,-5.22,-4.45,0.07,-0.08,0.10,-0.99
4975186417,4,38.84,0,4967.75,-5.26,-4.58,-2.44,-1.84,0.09,-0.21,-0.04,-0.97
4975314497,4,38.84,0,4967.75,-3.56,3.72,5.50,1.78,0.11,-0.37,-0.20,-0.90
4975436417,4,38.84,0,4944.81,-54.29,4.03,4.65,2.63,0.10,-0.43,-0.26,-0.86
4975564884,4,38.84,0,4944.81,-35.92,-0.08,1.12,-0.71,0.00,-0.38,-0.20,-0.91
4975686416,4,38.84,0,4944.81,-24.65,-2.34,-5.07,-1.30,0.15,0.27,0.09,0.95
4975816268,4,38.84,0,4944.81,-16.63,-0.27,-8.66,-3.38,0.30,0.18,0.01,0.94
4975936416,4,38.84,0,4944.81,-11.68,0.59,-6.57,-3.08,0.45,0.12,0.04,0.88
4976064538,4,38.84,0,4944.81,-8.03,1.04,-4.12,-1.91,0.60,0.08,0.15,0.78
4976186406,4,38.84,0,4944.81,-5.64,1.39,-1.98,-0.82,0.70,0.02,0.28,0.66
4976311418,4,38.84,0,4944.81,-3.70,-2.91,0.93,1.81,0.78,-0.06,0.40,0.48
4976436404,4,38.84,0,4924.25,-47.58,-5.26,-1.15,1.85,0.84,-0.09,0.42,0.34
4976561417,4,38.84,0,4924.25,-31.40,-2.51,-1.87,0.32,0.91,-0.03,0.33,0.26
4976686405,4,38.84,0,4924.25,-21.52,1.65,-1.23,-1.40,0.95,0.04,0.16,0.25
4976812763,4,38.84,0,4924.25,-14.25,6.44,2.10,1.32,0.97,0.09,-0.03,0.21
4976936405,4,38.84,0,4924.25,-9.75,7.65,1.63,-0.27,0.97,0.07,-0.12,0.18
4977061418,4,39.31,0,4924.25,-6.41,2.38,-0.79,0.12,0.99,0.02,-0.08,0.07
4977186405,4,38.84,0,4924.25,-4.44,-0.48,0.10,-1.38,1.00,-0.03,0.01,-0.04
4977311418,4,38.84,0,4903.19,-66.50,-2.60,-2.10,-0.29,0.98,-0.07,0.07,-0.16
4977436404,4,38.84,0,4903.19,-45.48,-1.93,-1.34,0.18,0.97,-0.07,0.07,-0.24
4977561417,4,38.84,0,4903.19,-30.16,-1.56,-0.43,-0.70,0.94,-0.03,0.02,-0.33
4977686404,4,38.84,0,4903.19,-20.66,-0.90,0.64,-0.81,0.91,0.02,-0.07,-0.41
4977812740,4,38.84,0,4903.19,-13.78,0.89,3.94,0.92,0.85,0.08,-0.17,-0.49
4977936403,4,38.84,0,4903.19,-9.33,-0.18,6.74,1.09,0.76,0.12,-0.21,-0.60
4978061418,4,38.37,0,4903.19,-6.20,-3.05,3.27,-0.97,0.66,0.09,-0.16,-0.73
4978186404,4,38.84,0,4903.19,-4.46,-1.29,-0.32,-2.47,0.56,-0.01,-0.11,-0.82
4978311416,4,38.84,0,4884.69,-57.22,1.70,-0.65,-1.58,0.43,-0.12,-0.09,-0.89
4978436404,4,38.84,0,4884.69,-39.26,5.73,-0.81,-1.30,0.38,-0.18,-0.09,-0.90
4978561416,4,38.84,0,4884.69,-26.20,2.70,-0.68,-0.63,0.48,-0.15,-0.04,-0.86
4978686404,4,38.84,0,4884.69,-18.11,0.50,0.31,-2.27,0.63,-0.04,-0.02,-0.77
4978812956,4,38.84,0,4884.69,-12.15,-1.42,4.20,-0.34,0.76,0.10,-0.04,-0.64
4978936419,4,38.84,0,4884.69,-8.29,-0.23,7.79,1.26,0.84,0.17,-0.08,-0.52
4979061784,4,38.84,0,4884.69,-5.46,0.75,4.70,-0.09,0.84,0.15,-0.03,-0.52
4979186419,4,38.84,0,4884.69,-3.83,1.74,2.30,-1.93,0.79,0.07,0.07,-0.61
4979312164,4,38.84,0,4868.75,-46.45,1.22,0.17,-2.05,0.70,-0.06,0.17,-0.69
4979436417,4,38.84,0,4868.75,-31.91,0.58,-3.35,-0.86,0.61,-0.16,0.22,-0.75
4979562404,4,38.84,0,4868.75,-21.26,2.06,-2.41,-1.65,0.56,-0.20,0.20,-0.78
4979686417,4,38.84,0,4868.75,-14.71,1.93,-0.10,-1.44,0.62,-0.13,0.14,-0.76
4979814427,4,38.84,0,4868.75,-9.90,2.09,1.59,-1.72,0.73,-0.03,0.06,-0.68
4979936417,4,38.84,0,4868.75,-6.84,3.87,5.10,0.98,0.83,0.07,-0.01,-0.55
4980063433,4,38.37,0,4868.75,-4.57,4.70,4.44,-0.77,0.93,0.13,-0.05,-0.34
4980186418,4,38.37,0,4868.75,-3.14,0.48,1.12,0.11,0.99,0.15,-0.02,-0.08
4980313793,4,38.37,0,4853.94,-41.45,-0.99,3.42,0.53,0.97,0.17,0.02,0.19
4980436418,4,38.84,0,4853.94,-28.35,0.25,3.37,-1.01,0.91,0.15,0.03,0.39
4980561417,4,38.84,0,4853.94,-18.96,-1.23,2.24,-1.00,0.85,0.05,0.06,0.52
4980686419,4,38.37,0,4853.94,-13.03,-2.71,1.80,0.17,0.77,-0.06,0.07,0.63
4980812754,4,38.37,0,4853.94,-8.69,-3.03,-0.49,-0.53,0.65,-0.17,0.07,0.74
4980936418,4,38.37,0,4853.94,-6.00,-2.52,-0.91,-0.86,0.48,-0.22,0.08,0.85
4981061415,4,38.37,0,4853.94,-3.90,-4.17,1.16,1.42,0.27,-0.20,0.09,0.94
4981186417,4,38.37,0,4853.94,-2.65,-0.16,0.60,-0.32,0.17,-0.15,0.03,0.97
4981311419,4,38.84,0,4833.25,-53.43,0.63,-1.05,-1.37,0.08,-0.10,-0.06,0.99
4981436418,4,38.37,0,4833.25,-36.73,0.08,-1.16,-2.03,0.00,0.08,0.13,-0.99
4981561417,4,38.37,0,4833.25,-24.42,-2.00,-1.68,-1.51,0.08,0.07,0.16,-0.98
4981686416,4,38.37,0,4833.25,-16.89,1.63,-3.26,-1.76,0.11,0.03,0.12,-0.99
4981812750,4,38.37,0,4833.25,-11.54,0.66,-0.88,-2.65,0.21,0.02,0.01,-0.98
4981936417,4,38.84,0,4833.25,-7.93,-0.13,4.95,1.68,0.30,0.01,-0.11,-0.95
4982061417,4,38.84,0,4833.25,-5.32,1.40,5.30,-0.77,0.42,-0.04,-0.16,-0.89
4982186418,4,38.37,0,4833.25,-3.67,0.32,2.93,-0.48,0.46,-0.07,-0.10,-0.88
4982311416,4,38.37,0,4816.25,-43.68,0.24,1.08,-0.06,0.42,-0.08,0.02,-0.90
4982436418,4,38.37,0,4816.25,-29.98,-2.65,-0.14,-0.76,0.39,-0.08,0.14,-0.91
4982561416,4,38.84,0,4816.25,-19.99,-3.68,-3.81,-1.13,0.39,-0.09,0.22,-0.89
4982686416,4,38.37,0,4816.25,-13.87,-3.32,-1.61,-1.65,0.49,-0.10,0.22,-0.84
4982812762,4,38.37,0,4816.25,-9.37,-0.39,1.15,-1.27,0.64,-0.13,0.14,-0.74
4982936419,4,38.37,0,4816.25,-6.47,3.89,2.33,-0.67,0.78,-0.17,0.08,-0.60
4983061417,4,38.37,0,4816.25,-4.30,1.61,0.63,-1.05,0.90,-0.20,0.10,-0.38
4983186419,4,38.37,0,4816.25,-3.06,2.41,-0.30,-1.76,0.95,-0.18,0.13,-0.20
4983311417,4,38.37,0,4800.81,-37.15,1.04,-0.95,-1.10,0.98,-0.11,0.18,-0.07
4983436417,4,38.84,0,4800.81,-25.50,1.43,-0.88,-0.16,0.98,-0.01,0.20,0.03
4983561419,4,38.37,0,4800.81,-16.92,0.29,4.35,0.68,0.96,0.11,0.22,0.12
4983686417,4,38.37,0,4800.81,-11.56,0.39,2.54,-0.45,0.96,0.15,0.22,0.12
4983812754,4,38.37,0,4800.81,-7.67,-0.80,-0.21,0.02,0.97,0.09,0.22,0.06
4983936418,4,38.84,0,4800.81,-5.38,0.02,-2.22,-1.69,0.98,0.04,0.19,0.00
4984061530,4,38.37,0,4800.81,-3.76,1.23,-0.88,-1.72,0.99,0.02,0.13,-0.06
4984186419,4,38.37,0,4800.81,-2.67,2.63,0.28,0.07,0.99,0.01,0.09,-0.11
4984311511,4,38.37,0,4784.75,-37.07,0.76,0.00,-0.54,0.98,0.02,0.07,-0.16
4984436417,4,38.37,0,4784.75,-25.38,-1.46,0.54,-0.98,0.97,0.04,0.06,-0.21
4984561419,4,38.37,0,4784.75,-16.98,-0.27,0.44,-1.35,0.97,0.04,0.04,-0.25
4984686419,4,38.37,0,4784.75,-11.71,0.31,0.36,-0.35,0.96,0.05,0.02,-0.29
4984812769,4,38.37,0,4784.75,-7.89,1.36,1.25,1.43,0.95,0.06,0.01,-0.32
4984936418,4,38.37,0,4784.75,-5.27,-0.44,1.25,0.16,0.94,0.07,0.01,-0.34
4985061418,4,38.37,0,4784.75,-3.44,2.08,0.58,0.17,0.93,0.06,0.02,-0.36
4985186419,4,38.37,0,4763.88,-67.29,1.46,-0.71,0.34,0.92,0.05,0.06,-0.38
4985311418,4,38.84,0,4763.88,-44.51,0.27,-1.00,1.34,0.91,0.05,0.11,-0.39
4985436417,4,38.37,0,4763.88,-30.45,-2.11,-1.57,0.73,0.90,0.07,0.16,-0.40
4985561415,4,38.37,0,4763.88,-20.16,-0.16,-1.61,-0.01,0.87,0.09,0.17,-0.45
4985686417,4,38.37,0,4763.88,-13.80,-1.32,-0.79,0.37,0.84,0.13,0.17,-0.50
4985812820,4,38.37,0,4763.88,-9.19,-2.85,-0.87,-1.22,0.78,0.16,0.16,-0.59
4985936419,4,38.37,0,4763.88,-6.30,-2.83,-0.73,-0.83,0.68,0.15,0.10,-0.71
4986061415,4,38.37,0,4763.88,-4.26,-2.88,4.67,-1.50,0.52,0.13,0.01,-0.85
4986186418,4,38.37,0,4746.56,-55.31,-2.12,3.13,-2.32,0.28,0.08,-0.06,-0.95
4986311418,4,38.37,0,4746.56,-36.78,-1.88,3.74,-1.73,0.04,-0.01,0.11,0.99
4986436418,4,38.37,0,4746.56,-25.33,-2.53,3.34,-1.18,0.38,0.04,0.15,0.91
4986561416,4,37.91,0,4746.56,-16.94,-0.79,1.00,-2.48,0.66,0.10,0.16,0.72
4986686418,4,38.37,0,4746.56,-11.61,-0.58,4.45,0.00,0.85,0.14,0.19,0.47
4986812881,4,38.37,0,4746.56,-7.81,-1.80,3.49,-0.28,0.96,0.14,0.19,0.14
4986936419,4,38.37,0,4746.56,-5.52,0.76,2.07,-2.76,0.98,0.11,0.14,-0.13
4987061419,4,37.91,0,4746.56,-3.81,-0.37,5.13,-2.03,0.90,0.06,0.09,-0.42
4987186419,4,38.37,0,4726.38,-59.90,0.88,2.89,-1.50,0.73,-0.01,0.03,-0.69
4987311417,4,38.37,0,4726.38,-39.78,2.44,4.64,-1.44,0.46,-0.05,-0.03,-0.89
4987436418,4,38.37,0,4726.38,-27.30,0.12,4.10,-1.01,0.23,-0.05,-0.02,-0.97
4987561415,4,37.91,0,4726.38,-18.26,-1.07,1.28,-0.70,0.01,-0.09,0.06,-0.99
4987686418,4,38.37,0,4726.38,-12.69,1.52,-0.07,-1.19,0.16,0.15,-0.12,0.97
4987812799,4,38.37,0,4726.38,-8.47,5.48,0.26,-0.99,0.24,0.18,-0.17,0.94
4987936417,4,38.37,0,4726.38,-5.97,2.68,-2.22,-3.21,0.25,0.10,-0.17,0.95
4988061418,4,38.37,0,4726.38,-4.28,0.08,-0.58,-3.60,0.34,-0.03,-0.08,0.94
4988186418,4,38.37,0,4704.88,-62.12,-4.80,0.29,-1.87,0.43,-0.16,-0.01,0.89
4988311418,4,38.37,0,4704.88,-41.36,-7.68,-2.59,-0.01,0.55,-0.22,0.00,0.80
4988436419,4,38.37,0,4704.88,-28.43,-0.33,-1.01,-2.51,0.65,-0.16,-0.02,0.75
4988561417,4,37.91,0,4704.88,-19.01,-0.86,-0.92,-0.86,0.70,-0.03,-0.03,0.72
4988686417,4,38.37,0,4704.88,-13.22,0.29,0.78,-2.93,0.72,0.10,-0.01,0.69
4988812815,4,37.91,0,4704.88,-8.92,5.31,4.66,-0.13,0.73,0.21,0.02,0.65
4988936418,4,38.37,0,4704.88,-6.21,3.72,4.76,-1.46,0.76,0.18,0.07,0.62
4989061589,4,37.91,0,4704.88,-4.24,-0.35,1.32,-0.72,0.76,0.04,0.11,0.64
4989186417,4,38.37,0,4689.81,-41.82,-5.32,-3.33,-1.76,0.72,-0.12,0.11,0.67
4989311588,4,38.37,0,4689.81,-27.72,-4.54,-4.73,0.82,0.65,-0.14,0.10,0.74
4989436419,4,37.91,0,4689.81,-19.13,-0.39,-2.39,-1.60,0.54,-0.04,0.08,0.84
4989561417,4,38.37,0,4689.81,-12.80,-1.44,-1.18,-0.47,0.42,0.07,0.05,0.90
4989686418,4,38.37,0,4689.81,-8.77,2.28,1.59,-0.46,0.29,0.19,-0.01,0.94
4989812809,4,38.37,0,4689.81,-5.79,4.13,-4.20,-0.01,0.20,0.23,-0.07,0.95
4989936420,4,37.91,0,4689.81,-4.00,2.57,-2.32,-0.95,0.23,0.20,-0.02,0.95
4990061420,4,38.37,0,4689.81,-2.68,-1.40,0.27,-0.30,0.33,0.09,0.11,0.94
4990186419,4,38.37,0,4672.62,-44.68,-3.76,1.37,1.56,0.40,-0.02,0.19,0.90
4990311420,4,37.91,0,4672.62,-29.48,-1.33,0.30,0.41,0.48,-0.10,0.19,0.85
4990436417,4,38.37,0,4672.62,-20.24,-0.03,-1.67,-1.22,0.56,-0.13,0.14,0.81
4990561419,4,38.37,0,4672.62,-13.52,0.49,-3.06,-1.16,0.62,-0.11,0.10,0.77
4990686417,4,38.37,0,4672.62,-9.39,1.05,-0.59,-2.06,0.67,-0.05,0.09,0.74
4990812742,4,37.91,0,4672.62,-6.30,1.77,-0.55,1.45,0.71,0.02,0.10,0.70
4990936419,4,38.37,0,4672.62,-4.37,1.40,1.87,-1.69,0.74,0.07,0.12,0.66
4991061417,4,37.91,0,4672.62,-2.90,-1.58,1.87,-0.26,0.76,0.08,0.12,0.63
4991186416,4,37.91,0,4652.94,-48.14,1.08,3.40,-0.81,0.79,0.08,0.09,0.61
4991311417,4,37.91,0,4652.94,-32.07,0.20,1.85,-1.41,0.84,0.03,0.02,0.54
4991436415,4,38.37,0,4652.94,-22.05,0.14,0.85,-1.07,0.88,-0.03,-0.05,0.47
4991561419,4,38.37,0,4652.94,-14.60,1.74,-4.70,-0.38,0.91,-0.08,-0.13,0.39
4991686418,4,37.91,0,4652.94,-10.04,2.29,-2.79,-0.50,0.93,-0.04,-0.14,0.34
4991812736,4,37.91,0,4652.94,-6.77,-0.71,-0.83,-1.02,0.93,0.02,-0.09,0.35
4991936417,4,38.37,0,4652.94,-4.86,-1.61,2.73,-1.49,0.92,0.10,-0.03,0.39
4992061419,4,37.91,0,4652.94,-3.35,-0.89,4.99,0.46,0.90,0.15,-0.01,0.41
4992186419,4,37.91,0,4631.62,-50.63,-0.20,4.28,0.57,0.92,0.13,-0.01,0.38
4992311419,4,38.37,0,4631.62,-33.51,-0.36,-1.21,0.75,0.95,0.04,-0.03,0.31
4992436418,4,37.91,0,4631.62,-23.00,0.28,-2.50,-1.08,0.97,-0.02,-0.06,0.24
4992561418,4,37.91,0,4631.62,-15.34,0.94,-3.25,-0.91,0.98,-0.04,-0.08,0.16
4992686418,4,37.91,0,4631.62,-10.50,-0.23,-1.26,0.68,0.99,0.00,-0.07,0.11
4992812738,4,37.91,0,4631.62,-6.97,-1.11,0.07,-0.47,0.99,0.08,-0.04,0.09
4992936418,4,38.37,0,4631.62,-4.69,-3.56,4.46,0.72,0.99,0.13,-0.03,0.07
4993061419,4,37.91,0,4631.62,-2.99,-1.26,3.19,0.43,0.99,0.11,-0.08,0.05
4993186419,4,37.91,0,4613.19,-42.63,-0.89,1.49,-0.83,0.99,0.04,-0.13,-0.01
4993311416,4,37.91,0,4613.19,-28.32,-0.04,-1.39,-1.16,0.98,-0.04,-0.20,-0.08
4993436419,4,37.91,0,4613.19,-19.43,4.19,-2.50,-0.31,0.95,-0.08,-0.25,-0.14
4993561418,4,37.91,0,4613.19,-12.91,3.45,-1.93,0.16,0.96,-0.05,-0.21,-0.15
4993686417,4,38.37,0,4613.19,-8.88,-1.68,2.44,-1.04,0.99,0.03,-0.12,-0.09
4993813292,4,37.91,0,4613.19,-6.00,-3.88,3.19,-1.45,1.00,0.08,-0.06,-0.00
4993936417,4,37.91,0,4613.19,-4.26,-2.73,3.73,-0.78,0.99,0.07,-0.05,0.08
4994062341,4,37.91,0,4596.75,-52.47,-1.62,1.52,-0.78,0.99,0.01,-0.08,0.12
4994186417,4,37.91,0,4596.75,-35.92,0.26,3.16,-0.38,0.98,-0.06,-0.11,0.15
4994312745,4,37.91,0,4596.75,-23.90,1.24,1.45,-1.50,0.96,-0.18,-0.14,0.16
4994436416,4,37.91,0,4596.75,-16.43,0.66,-3.25,-0.77,0.95,-0.24,-0.13,0.14
4994563234,4,37.91,0,4596.75,-10.96,-0.14,-2.48,-0.56,0.96,-0.23,-0.11,0.10
4994686417,4,38.37,0,4596.75,-7.50,0.64,2.25,-0.70,0.98,-0.15,-0.08,0.07
4994815143,4,37.91,0,4596.75,-5.14,0.35,3.02,-1.95,0.99,-0.08,-0.01,0.09
4994936414,4,37.91,0,4596.75,-3.68,-1.16,4.35,0.95,0.99,-0.03,0.05,0.11
4995063997,4,38.37,0,4576.50,-61.54,-1.77,3.83,1.03,0.99,-0.04,0.08,0.15
4995186418,4,37.91,0,4576.50,-41.98,2.11,0.62,1.37,0.98,-0.08,0.08,0.19
4995314526,4,37.91,0,4576.50,-27.82,1.33,-1.25,-0.82,0.96,-0.12,0.09,0.24
4995436416,4,37.91,0,4576.50,-19.04,1.31,-0.54,0.74,0.94,-0.14,0.12,0.28
4995564869,4,37.91,0,4576.50,-12.56,-1.23,0.26,0.51,0.92,-0.14,0.15,0.32
4995686417,4,37.91,0,4576.50,-8.57,-2.70,0.75,0.55,0.92,-0.13,0.15,0.34
4995816293,4,37.91,0,4576.50,-5.77,-0.32,-0.42,-1.88,0.92,-0.11,0.09,0.36
4995936414,4,37.91,0,4576.50,-4.04,0.84,0.20,0.09,0.92,-0.08,0.02,0.39
4996063248,4,37.91,0,4558.12,-53.08,4.11,-0.67,-0.19,0.90,-0.05,-0.05,0.43
4996186416,4,37.91,0,4558.12,-36.42,5.04,-1.02,-1.96,0.87,-0.05,-0.07,0.49
4996311419,4,37.91,0,4558.12,-24.31,1.46,-0.77,-0.14,0.81,-0.06,0.00,0.58
4996436417,4,37.91,0,4558.12,-16.66,-3.12,-0.26,0.32,0.75,-0.05,0.10,0.65
4996561417,4,37.91,0,4558.12,-10.99,-2.76,0.48,0.66,0.72,-0.00,0.17,0.68
4996686416,4,37.91,0,4558.12,-7.54,-1.18,0.11,-0.23,0.72,0.05,0.17,0.68
4996812730,4,37.91,0,4558.12,-4.98,-1.78,3.93,0.80,0.74,0.10,0.14,0.65
4996936416,4,38.37,0,4558.12,-3.46,-1.26,2.40,-1.77,0.80,0.12,0.06,0.58
4997061417,4,37.44,0,4541.50,-46.63,4.80,-1.53,-0.69,0.88,0.12,-0.05,0.46
4997186415,4,37.91,0,4541.50,-32.06,6.04,0.51,-1.88,0.93,0.12,-0.09,0.34
4997311417,4,37.91,0,4541.50,-21.38,2.72,0.12,-0.38,0.95,0.06,-0.04,0.30
4997436417,4,37.91,0,4541.50,-14.72,-1.01,-0.61,-1.53,0.95,-0.01,0.04,0.32
4997561416,4,37.91,0,4541.50,-9.86,-2.76,-0.56,0.14,0.93,-0.07,0.12,0.34
4997686415,4,37.91,0,4541.50,-6.81,-2.64,-0.60,-0.88,0.92,-0.09,0.15,0.36
4997812747,4,37.91,0,4541.50,-4.57,-4.85,-0.15,-0.96,0.91,-0.08,0.13,0.38
4997936418,4,37.91,0,4541.50,-3.25,-0.57,-0.51,-1.34,0.92,-0.04,0.03,0.38
4998061418,4,37.91,0,4520.06,-55.69,5.72,0.07,-0.81,0.92,0.03,-0.08,0.39
4998186413,4,37.91,0,4520.06,-38.21,6.77,2.02,-0.60,0.87,0.05,-0.12,0.47
4998311453,4,37.91,0,4520.06,-25.43,1.41,1.32,-0.60,0.71,-0.02,-0.08,0.70
4998436417,4,37.91,0,4520.06,-17.46,-0.58,1.44,0.06,0.51,-0.07,0.01,0.86
4998561974,4,37.91,0,4520.06,-11.57,-2.69,2.86,0.32,0.27,-0.09,0.11,0.95
4998686414,4,37.91,0,4520.06,-7.87,-1.14,3.46,-0.18,0.10,-0.07,0.14,0.98
4998813803,4,37.91,0,4520.06,-5.18,-0.29,0.86,-0.32,0.04,0.05,-0.09,-0.99
4998936406,4,37.91,0,4520.06,-3.56,-2.14,-1.57,0.17,0.13,0.05,-0.02,-0.99
4999062693,4,37.91,0,4502.56,-44.74,-0.71,-2.71,-0.91,0.24,0.04,0.04,-0.97
4999186404,4,37.91,0,4502.56,-30.79,-0.91,-1.93,-2.43,0.34,0.04,0.05,-0.94
4999313227,4,37.91,0,4502.56,-20.48,-1.69,-1.26,-0.13,0.46,0.03,0.01,-0.89
4999436404,4,37.91,0,4502.56,-14.08,-1.31,0.08,-0.52,0.56,0.01,-0.04,-0.83
4999563654,4,37.91,0,4502.56,-9.42,1.92,1.16,-1.39,0.64,-0.03,-0.10,-0.76
4999686404,4,37.91,0,4502.56,-6.55,1.82,-0.10,0.41,0.69,-0.04,-0.10,-0.72
4999815628,4,37.91,0,4502.56,-4.51,0.25,-0.33,-2.31,0.73,-0.03,-0.08,-0.67
4999936404,4,37.91,0,4502.56,-3.03,1.97,1.34,-0.67,0.78,-0.00,-0.05,-0.62
5000064525,4,37.91,0,4484.06,-44.02,-2.15,3.02,1.05,0.83,0.04,0.01,-0.55
5000186404,4,37.91,0,4484.06,-30.19,-4.08,1.81,-1.74,0.88,0.04,0.06,-0.47
5000314839,4,37.91,0,4484.06,-20.23,-3.26,1.10,-0.99,0.93,-0.01,0.07,-0.36
5000436404,4,37.91,0,4484.06,-13.85,-1.48,-0.76,-0.54,0.97,-0.07,0.06,-0.24
5000564883,4,37.91,0,4484.06,-9.28,-2.45,-1.34,-0.70,0.99,-0.13,0.03,-0.10
5000686403,4,37.91,0,4484.06,-6.41,-1.52,-2.87,-1.10,0.99,-0.15,-0.01,0.06
5000812731,4,37.91,0,4484.06,-4.33,-0.51,-1.53,-0.67,0.94,-0.13,-0.07,0.30
5000936403,4,37.44,0,4484.06,-2.98,-0.66,-0.48,0.18,0.83,-0.10,-0.12,0.53
5001061417,4,37.91,0,4465.19,-43.50,1.75,-0.52,-0.92,0.61,-0.10,-0.19,0.76
5001186404,4,37.91,0,4465.19,-29.80,0.89,-1.90,-0.13,0.32,-0.14,-0.19,0.92
5001311418,4,37.44,0,4465.19,-19.79,-0.09,-1.34,-0.16,0.03,-0.16,-0.14,0.98
5001436403,4,37.91,0,4465.19,-13.61,1.50,0.81,-0.67,0.19,0.15,0.05,-0.97
5001561418,4,37.91,0,4465.19,-9.07,1.25,-0.62,-0.03,0.41,0.13,-0.03,-0.90
5001686406,4,37.44,0,4465.19,-6.22,1.71,0.62,-0.73,0.57,0.12,-0.09,-0.81
5001812753,4,37.44,0,4465.19,-4.11,2.21,-0.21,-0.44,0.71,0.12,-0.15,-0.68
5001936418,4,37.44,0,4447.25,-58.67,1.36,0.21,-0.17,0.80,0.14,-0.18,-0.55
5002061420,4,37.44,0,4447.25,-38.88,-0.31,2.18,-0.18,0.87,0.18,-0.19,-0.41
5002186418,4,37.44,0,4447.25,-26.62,-1.16,3.25,0.00,0.92,0.18,-0.19,-0.28
5002311418,4,37.44,0,4447.25,-17.69,-1.09,3.00,-0.18,0.97,0.12,-0.16,-0.16
5002436417,4,37.91,0,4447.25,-12.21,-2.01,1.04,-0.99,0.99,0.04,-0.11,-0.06
5002561418,4,37.44,0,4447.25,-8.17,-2.60,-0.91,-0.60,0.99,-0.07,-0.08,0.05
5002686417,4,37.44,0,4447.25,-5.61,-3.23,-3.15,-0.24,0.98,-0.14,-0.07,0.16
5002813001,4,37.91,0,4447.25,-3.76,-2.00,-3.22,-0.72,0.93,-0.13,-0.09,0.33
5002936418,4,37.91,0,4426.44,-65.44,-1.42,-2.02,-1.30,0.81,-0.08,-0.13,0.56
5003061994,4,37.91,0,4426.44,-43.47,0.91,-1.37,0.21,0.56,-0.02,-0.20,0.80
5003186419,4,37.44,0,4426.44,-29.76,1.84,-1.89,-0.53,0.19,-0.05,-0.25,0.95
5003312505,4,37.44,0,4426.44,-19.80,-1.91,-0.83,-0.53,0.25,0.12,0.21,-0.94
5003436417,4,37.44,0,4426.44,-13.56,-0.79,2.00,-1.57,0.56,0.12,0.11,-0.81
5003562880,4,37.91,0,4426.44,-9.10,1.58,0.40,0.14,0.81,0.05,0.05,-0.58
5003686419,4,37.44,0,4426.44,-6.29,-0.07,-0.50,-0.07,0.94,0.00,0.03,-0.34
5003814815,4,37.44,0,4426.44,-4.14,1.25,-2.11,2.21,1.00,-0.04,0.04,-0.04
5003936418,4,37.91,0,4406.62,-58.82,0.19,-1.73,0.82,0.97,-0.03,0.05,0.23
5004063117,4,37.44,0,4406.62,-38.86,1.31,-1.07,1.05,0.87,0.04,0.06,0.48
5004186417,4,37.44,0,4406.62,-26.51,3.12,0.08,0.24,0.72,0.11,0.04,0.68
5004311417,4,37.44,0,4406.62,-17.55,2.73,-1.72,0.47,0.54,0.16,0.03,0.83
5004436417,4,37.91,0,4406.62,-11.95,3.59,-1.11,1.42,0.34,0.18,0.05,0.92
5004561419,4,37.91,0,4406.62,-7.84,-0.49,1.31,1.48,0.09,0.16,0.09,0.98
5004686419,4,37.44,0,4406.62,-5.30,-1.22,3.12,0.89,0.16,-0.17,-0.12,-0.97
5004812768,4,37.44,0,4406.62,-3.45,-0.07,2.60,0.94,0.40,-0.19,-0.10,-0.89
5004936417,4,37.44,0,4391.12,-44.90,-1.00,1.56,-1.20,0.58,-0.19,-0.04,-0.79
5005061418,4,37.44,0,4391.12,-29.70,-0.94,1.35,0.85,0.73,-0.17,0.03,-0.66
5005186419,4,37.91,0,4391.12,-20.18,1.15,2.12,1.25,0.85,-0.14,0.08,-0.51
5005311416,4,37.44,0,4391.12,-13.45,0.02,2.91,-0.75,0.93,-0.09,0.14,-0.32
5005436417,4,37.44,0,4391.12,-9.09,-3.50,4.13,0.82,0.97,-0.06,0.19,-0.14
5005561418,4,37.44,0,4391.12,-5.96,-3.91,0.70,0.99,0.98,-0.06,0.19,0.07
5005686418,4,37.91,0,4391.12,-4.02,-1.25,-0.66,-0.40,0.94,-0.07,0.13,0.31
5005812750,4,37.44,0,4391.12,-2.64,2.06,-0.51,0.48,0.82,-0.07,0.07,0.56
5005936418,4,37.91,0,4369.94,-56.41,2.20,-0.44,0.18,0.65,-0.09,0.04,0.75
5006061416,4,37.44,0,4369.94,-37.42,-2.88,-0.23,-0.18,0.43,-0.11,0.06,0.89
5006186418,4,37.44,0,4369.94,-25.65,-4.77,-0.69,-0.66,0.24,-0.08,0.06,0.96
5006311417,4,37.91,0,4369.94,-17.10,-0.46,-1.59,-1.76,0.08,0.02,0.04,1.00
5006436418,4,37.44,0,4369.94,-11.76,5.61,-2.14,0.33,0.09,-0.12,-0.00,-0.99
5006561418,4,37.44,0,4369.94,-7.88,1.80,-0.70,-1.32,0.34,-0.12,0.04,-0.93
5006686416,4,37.44,0,4369.94,-5.50,-2.24,0.65,-1.32,0.56,-0.07,0.05,-0.83
5006812772,4,37.44,0,4369.94,-3.71,-2.07,0.76,-1.16,0.74,-0.03,0.02,-0.67
5006936417,4,37.44,0,4353.81,-42.79,-0.61,-0.21,-0.50,0.87,-0.04,-0.02,-0.49
5007061418,4,37.44,0,4353.81,-28.46,4.04,-1.39,-0.90,0.96,-0.06,-0.04,-0.26
5007186417,4,37.44,0,4353.81,-19.58,2.09,1.11,-1.24,1.00,-0.05,-0.01,0.03
5007311531,4,37.44,0,4353.81,-12.98,-0.14,4.79,-0.18,0.94,-0.00,0.03,0.33
5007436418,4,37.44,0,4353.81,-8.99,-1.01,4.03,-0.94,0.78,0.01,0.04,0.62
5007561418,4,37.44,0,4353.81,-6.08,-1.10,-0.07,-2.68,0.56,0.00,0.02,0.83
5007686418,4,37.44,0,4353.81,-4.15,-0.12,-0.71,-0.22,0.27,-0.00,0.01,0.96
5007812754,4,37.44,0,4353.81,-2.77,0.25,1.12,0.83,0.01,-0.00,-0.01,-1.00
5007936417,4,37.44,0,4332.94,-50.88,1.31,2.16,-1.36,0.28,-0.01,-0.00,-0.96
5008061418,4,37.44,0,4332.94,-33.85,-1.36,3.13,-1.09,0.53,0.01,0.03,-0.84
5008186419,4,37.44,0,4332.94,-23.31,-2.71,1.07,-0.74,0.73,0.02,0.08,-0.68
5008311417,4,37.44,0,4332.94,-15.48,-2.73,-0.39,0.64,0.88,0.03,0.11,-0.46
5008436419,4,37.44,0,4332.94,-10.62,-1.41,-1.42,-0.05,0.97,0.05,0.10,-0.21
5008561416,4,37.44,0,4332.94,-7.10,-0.13,-0.15,1.34,0.99,0.07,0.05,0.07
5008686416,4,37.44,0,4332.94,-4.82,0.00,1.68,-0.09,0.95,0.09,0.01,0.30
5008812823,4,37.44,0,4332.94,-3.14,-1.95,3.00,0.04,0.84,0.08,-0.04,0.53
5008936415,4,37.44,0,4317.31,-37.69,-1.69,1.36,-1.33,0.70,0.03,-0.11,0.70
5009061416,4,37.44,0,4317.31,-25.11,-2.37,-2.45,-0.86,0.51,-0.03,-0.17,0.84
5009186418,4,37.44,0,4317.31,-17.28,0.18,-3.74,-1.04,0.30,-0.06,-0.18,0.93
5009311417,4,37.44,0,4317.31,-11.64,1.62,-1.17,-2.21,0.02,0.07,0.12,-0.99
5009436419,4,37.44,0,4317.31,-8.11,0.73,0.42,-0.97,0.35,0.05,0.04,-0.94
5009561417,4,37.44,0,4317.31,-5.44,1.34,0.68,-1.07,0.65,-0.00,-0.03,-0.76
5009686419,4,37.44,0,4317.31,-3.78,-0.38,-0.44,0.37,0.85,-0.05,-0.04,-0.52
5009812811,4,37.44,0,4317.31,-2.45,-2.71,-0.68,-0.11,0.97,-0.09,-0.03,-0.21
5009936417,4,37.44,0,4296.88,-46.60,-1.77,-1.19,-0.46,0.99,-0.10,-0.05,0.09
5010061416,4,37.44,0,4296.88,-30.82,-0.50,0.19,0.86,0.90,-0.09,-0.10,0.41
5010186417,4,37.44,0,4296.88,-20.90,6.16,-0.37,1.11,0.72,-0.10,-0.14,0.67
5010311417,4,37.44,0,4296.88,-13.93,2.62,-0.79,-1.27,0.39,-0.16,-0.08,0.91
5010436417,4,37.44,0,4296.88,-9.58,-0.05,1.08,0.15,0.05,-0.17,0.03,0.98
5010561417,4,37.44,0,4296.88,-6.22,-1.48,2.33,0.78,0.28,0.13,-0.12,-0.94
5010686419,4,37.44,0,4296.88,-4.14,-0.84,-1.46,0.41,0.51,0.06,-0.13,-0.85
5010812871,4,36.97,0,4280.69,-51.70,-1.34,-2.28,-1.12,0.71,0.00,-0.13,-0.69
5010936418,4,37.44,0,4280.69,-35.39,2.08,-0.86,-0.55,0.86,-0.02,-0.14,-0.49
5011061598,4,37.44,0,4280.69,-23.56,1.28,3.60,-0.59,0.97,-0.02,-0.12,-0.22
5011186419,4,37.44,0,4280.69,-16.19,0.22,6.23,-0.17,0.99,-0.03,-0.08,0.13
5011311616,4,37.44,0,4280.69,-10.72,-0.24,3.36,0.84,0.89,-0.06,-0.03,0.44
5011436417,4,37.44,0,4280.69,-7.25,-2.55,1.14,0.83,0.69,-0.09,0.02,0.72
5011561417,4,37.44,0,4280.69,-4.86,-0.23,0.54,0.69,0.44,-0.09,0.04,0.89
5011686418,4,37.44,0,4280.69,-3.21,0.13,-1.44,0.00,0.16,-0.08,0.05,0.98
5011812811,4,37.44,0,4257.69,-67.21,0.04,0.65,0.78,0.10,0.08,-0.06,-0.99
5011936418,4,37.44,0,4257.69,-45.94,-0.89,3.24,0.15,0.34,0.08,-0.07,-0.93
5012061414,4,36.50,0,4257.69,-30.42,-4.94,2.11,1.07,0.55,0.09,-0.03,-0.83
5012186417,4,36.50,0,4257.69,-20.82,-4.42,-1.07,-0.83,0.73,0.07,-0.01,-0.69
5012311417,4,37.44,0,4257.69,-13.84,-1.06,-0.30,0.97,0.88,0.01,-0.02,-0.48
5012436417,4,37.44,0,4257.69,-9.46,-0.48,0.00,-0.85,0.96,-0.03,-0.04,-0.27
5012561413,4,37.44,0,4257.69,-6.23,-1.87,2.29,1.21,1.00,-0.07,-0.04,-0.03
5012686417,4,37.44,0,4257.69,-4.35,-1.59,2.03,-1.21,0.97,-0.12,-0.05,0.19
5012812761,4,37.44,0,4241.94,-46.15,-2.32,-2.34,-0.75,0.89,-0.18,-0.06,0.42
5012936419,4,36.97,0,4241.94,-31.64,-1.46,-4.02,-0.86,0.73,-0.18,-0.07,0.65
5013061417,4,36.50,0,4241.94,-21.10,0.95,-3.52,-0.48,0.45,-0.10,-0.07,0.89
5013186416,4,36.97,0,4241.94,-14.47,1.05,-2.26,-0.51,0.07,-0.01,-0.06,1.00
5013311417,4,37.44,0,4241.94,-9.42,-0.10,1.45,1.89,0.37,-0.06,0.08,-0.92
5013436419,4,36.97,0,4241.94,-6.40,-0.19,0.52,-0.05,0.70,-0.09,0.14,-0.70
5013561417,4,36.97,0,4241.94,-4.19,-3.05,1.29,-0.02,0.91,-0.05,0.19,-0.37
5013686417,4,37.44,0,4241.94,-2.88,-1.07,-0.37,0.41,0.98,-0.02,0.17,-0.08
5013812737,4,36.97,0,4221.94,-55.05,-0.25,-1.67,-0.96,0.97,0.02,0.10,0.23
5013936419,4,37.44,0,4221.94,-37.77,-0.05,-1.71,-0.96,0.87,0.05,0.01,0.49
5014061417,4,36.97,0,4221.94,-25.14,1.23,-4.65,-1.31,0.68,0.06,-0.08,0.73
5014186415,4,36.50,0,4221.94,-17.31,-1.48,-2.44,-1.04,0.43,0.08,-0.11,0.89
5014311417,4,36.50,0,4221.94,-11.60,-1.39,-0.23,-1.69,0.15,0.14,-0.12,0.97
5014436417,4,36.50,0,4221.94,-8.11,-0.27,-1.30,-1.21,0.12,-0.19,0.16,-0.96
5014561419,4,36.97,0,4221.94,-5.46,-1.32,-3.17,-1.08,0.40,-0.20,0.20,-0.87
5014686416,4,37.44,0,4221.94,-3.89,1.90,-2.79,-0.34,0.63,-0.18,0.17,-0.74
5014813053,4,36.97,0,4205.50,-43.72,1.51,0.32,-0.58,0.85,-0.11,0.11,-0.50
5014936419,4,36.50,0,4205.50,-29.88,0.52,2.94,-0.11,0.97,-0.06,0.03,-0.24
5015062188,4,36.50,0,4205.50,-19.84,3.70,1.86,-1.69,0.99,-0.07,-0.03,0.09
5015186417,4,37.44,0,4205.50,-13.67,1.54,0.49,-0.14,0.95,-0.09,-0.00,0.31
5015312721,4,36.97,0,4205.50,-9.13,-0.59,-0.44,0.35,0.82,-0.09,0.06,0.55
5015436415,4,37.44,0,4205.50,-6.25,-0.01,0.42,0.75,0.69,-0.06,0.10,0.71
5015563227,4,36.97,0,4205.50,-4.01,1.30,3.42,0.20,0.50,-0.00,0.13,0.85
5015686417,4,36.50,0,4205.50,-2.70,2.69,3.16,-0.28,0.37,-0.01,0.11,0.92
5015815303,4,36.50,0,4185.62,-49.98,0.77,1.07,-1.77,0.24,-0.09,0.06,0.97
